time,ax,ay,az,atotal
0.010473012924194336,-0.04,-0.03,0.36,0.36
0.011527061462402344,0.04,0.11,0.5,0.51
0.032691001892089844,0.11,0.24,0.56,0.61
0.03404116630554199,0.21,0.28,0.54,0.64
0.047167062759399414,0.41,0.29,0.59,0.77
0.049143075942993164,0.63,0.3,0.68,0.97
0.06316709518432617,0.84,0.27,0.71,1.13
0.06571698188781738,0.98,0.2,0.66,1.19
0.08029007911682129,1.06,0.13,0.55,1.2
0.08418107032775879,1.07,0.12,0.4,1.14
0.09769892692565918,1.01,0.15,0.29,1.06
0.0989539623260498,0.91,0.13,0.16,0.93
0.1158139705657959,0.8,0.02,0.09,0.8
0.11967110633850098,0.69,-0.09,0.03,0.69
0.1274411678314209,0.59,-0.12,-0.02,0.6
0.12834906578063965,0.53,-0.11,-0.14,0.55
0.14735198020935059,0.42,-0.1,-0.33,0.54
0.15091705322265625,0.23,-0.06,-0.64,0.68
0.16310811042785645,-0.03,0.0,-0.91,0.91
0.16759991645812988,-0.29,0.09,-1.16,1.19
0.17906594276428223,-0.54,0.14,-1.34,1.45
0.18034100532531738,-0.82,0.1,-1.46,1.67
0.19915413856506348,-1.12,-0.02,-1.56,1.92
0.20290708541870117,-1.4,-0.16,-1.59,2.12
0.2136399745941162,-1.6,-0.29,-1.61,2.28
0.21778202056884766,-1.72,-0.4,-1.54,2.34
0.2298600673675537,-1.71,-0.44,-1.5,2.31
0.23369908332824707,-1.71,-0.51,-1.42,2.28
0.2454080581665039,-1.67,-0.57,-1.39,2.24
0.24806499481201172,-1.57,-0.66,-1.4,2.2
0.2666609287261963,-1.38,-0.76,-1.41,2.11
0.2676529884338379,-1.11,-0.76,-1.3,1.87
0.2804381847381592,-0.78,-0.65,-1.2,1.57
0.28377699851989746,-0.44,-0.49,-1.13,1.3
0.29607105255126953,-0.04,-0.32,-1.04,1.08
0.29993200302124023,0.35,-0.14,-1.03,1.09
0.312359094619751,0.77,0.13,-0.91,1.19
0.3168599605560303,1.15,0.47,-0.7,1.42
0.3283240795135498,1.39,0.84,-0.53,1.7
0.33220696449279785,1.49,1.12,-0.34,1.89
0.3471810817718506,1.47,1.32,-0.23,1.98
0.3480541706085205,1.38,1.49,-0.09,2.03
0.36205410957336426,1.19,1.55,0.08,1.95
0.3657538890838623,0.96,1.52,0.23,1.81
0.37520503997802734,0.7,1.43,0.33,1.62
0.37656712532043457,0.42,1.24,0.42,1.37
0.3942070007324219,0.13,0.96,0.51,1.09
0.39816999435424805,-0.12,0.64,0.58,0.87
0.41072607040405273,-0.35,0.37,0.61,0.79
0.41353487968444824,-0.51,0.16,0.71,0.88
0.43280720710754395,-0.61,0.02,0.79,0.99
0.4339449405670166,-0.65,-0.1,0.8,1.03
0.4416191577911377,-0.6,-0.19,0.76,0.98
0.44249606132507324,-0.46,-0.28,0.68,0.86
0.46198010444641113,-0.28,-0.35,0.58,0.73
0.46576714515686035,-0.11,-0.35,0.44,0.57
0.47420716285705566,0.06,-0.3,0.38,0.48
0.4750230312347412,0.24,-0.26,0.33,0.48
0.49331116676330566,0.39,-0.24,0.23,0.51
0.49712300300598145,0.52,-0.21,0.1,0.56
0.511836051940918,0.63,-0.17,0.05,0.65
0.5131280422210693,0.66,-0.15,0.03,0.67
0.5283858776092529,0.64,-0.15,-0.02,0.65
0.5320398807525635,0.55,-0.22,-0.11,0.6
0.5439920425415039,0.45,-0.31,-0.11,0.55
0.5475270748138428,0.35,-0.35,-0.1,0.5
0.5595860481262207,0.2,-0.41,-0.09,0.46
0.5618929862976074,0.03,-0.47,-0.08,0.47
0.5773851871490479,-0.13,-0.51,-0.13,0.54
0.581348180770874,-0.28,-0.51,-0.14,0.59
0.596541166305542,-0.37,-0.46,-0.09,0.59
0.5972449779510498,-0.4,-0.37,-0.03,0.54
0.6129229068756104,-0.4,-0.25,0.03,0.47
0.6162989139556885,-0.39,-0.11,0.06,0.4
0.6266391277313232,-0.39,0.01,0.04,0.39
0.6291460990905762,-0.36,0.1,-0.02,0.37
0.6435720920562744,-0.31,0.16,-0.06,0.35
0.646618127822876,-0.28,0.24,-0.03,0.37
0.6608431339263916,-0.25,0.34,-0.01,0.42
0.6638848781585693,-0.19,0.39,-0.02,0.43
0.6823551654815674,-0.14,0.4,-0.09,0.43
0.683387041091919,-0.08,0.4,-0.19,0.45
0.6949799060821533,0.04,0.41,-0.25,0.48
0.697504997253418,0.01,0.39,-0.23,0.45
0.7111570835113525,-0.06,0.36,-0.23,0.43
0.7139661312103271,-0.14,0.31,-0.23,0.41
0.7259130477905273,-0.19,0.28,-0.19,0.38
0.7293012142181396,-0.2,0.21,-0.17,0.33
0.7428109645843506,-0.19,0.12,-0.16,0.27
0.746192216873169,-0.17,0.08,-0.19,0.26
0.7610208988189697,-0.13,0.07,-0.23,0.27
0.7619800567626953,-0.15,0.12,-0.3,0.35
0.7775540351867676,-0.19,0.22,-0.34,0.44
0.7810020446777344,-0.22,0.3,-0.32,0.49
0.7942280769348145,-0.28,0.38,-0.31,0.56
0.7979750633239746,-0.33,0.46,-0.31,0.64
0.8096890449523926,-0.34,0.53,-0.36,0.72
0.8122529983520508,-0.34,0.56,-0.41,0.77
0.8275880813598633,-0.36,0.53,-0.5,0.81
0.8316190242767334,-0.36,0.51,-0.56,0.83
0.8445971012115479,-0.37,0.46,-0.59,0.83
0.8457319736480713,-0.36,0.41,-0.63,0.83
0.8641998767852783,-0.31,0.43,-0.71,0.88
0.867516040802002,-0.18,0.47,-0.75,0.9
0.8771212100982666,-0.02,0.51,-0.77,0.92
0.8799350261688232,0.18,0.53,-0.77,0.95
0.8941981792449951,0.39,0.54,-0.77,1.01
0.8972861766815186,0.59,0.4,-0.74,1.02
0.9110209941864014,0.75,0.19,-0.69,1.03
0.9142920970916748,0.88,-0.02,-0.68,1.11
0.9316210746765137,1.0,-0.18,-0.67,1.21
0.9324820041656494,1.13,-0.2,-0.63,1.3
0.9459609985351562,1.22,-0.2,-0.52,1.34
0.9482300281524658,1.28,-0.27,-0.3,1.34
0.9617340564727783,1.27,-0.32,0.03,1.31
0.9652769565582275,1.2,-0.44,0.23,1.29
0.9762310981750488,1.15,-0.6,0.23,1.31
0.9784770011901855,1.13,-0.69,0.02,1.32
0.9941940307617188,1.13,-0.65,-0.01,1.3
0.9977729320526123,1.08,-0.59,0.0,1.23
1.014012098312378,0.94,-0.52,-0.04,1.07
1.0148909091949463,0.76,-0.57,0.06,0.95
1.0280780792236328,0.58,-0.74,0.11,0.94
1.0302422046661377,0.42,-0.97,0.07,1.05
1.046030044555664,0.31,-1.17,-0.07,1.21
1.0493910312652588,0.25,-1.36,-0.34,1.42
1.0609910488128662,0.19,-1.36,-0.59,1.49
1.0638020038604736,0.19,-1.18,-0.53,1.3
1.0761311054229736,-1.5,-1.63,1.11,2.47
1.0794241428375244,-2.57,-1.07,2.14,3.51
1.1001641750335693,-1.94,0.27,1.87,2.7
1.1015288829803467,-2.58,0.12,1.37,2.92
1.1120800971984863,-1.75,0.43,0.8,1.97
1.1155221462249756,-1.2,0.8,0.53,1.53
1.1249759197235107,-0.37,0.81,0.16,0.9
1.1262800693511963,-0.1,0.77,0.08,0.78
1.1451470851898193,0.09,0.59,-0.12,0.6
1.149172067642212,0.24,0.29,-0.16,0.4
1.159783124923706,0.18,-0.43,0.14,0.48
1.1635119915008545,-0.02,-0.97,0.36,1.03
1.1783721446990967,-0.23,-1.13,0.78,1.39
1.1797740459442139,-0.44,-0.89,1.33,1.65
1.19697904586792,-0.65,-0.53,1.7,1.89
1.200551986694336,-0.72,-0.26,1.49,1.67
1.2105271816253662,-0.54,-0.25,0.91,1.08
1.2137911319732666,-0.16,-0.26,0.53,0.61
1.2263472080230713,0.21,-0.05,0.1,0.23
1.2296810150146484,0.44,0.17,-0.15,0.49
1.2432920932769775,0.38,0.15,-0.41,0.57
1.2466840744018555,0.13,-0.02,-0.57,0.58
1.2613720893859863,-0.11,-0.07,-0.63,0.64
1.2623159885406494,-0.34,-0.05,-0.67,0.75
1.2829029560089111,-0.58,-0.03,-0.68,0.89
1.2843430042266846,-0.68,-0.12,-0.65,0.94
1.2872679233551025,-0.61,-0.15,-0.55,0.83
1.2915630340576172,-0.42,-0.08,-0.51,0.66
1.2929141521453857,-0.24,-0.01,-0.57,0.61
1.3101999759674072,-0.09,0.0,-0.54,0.54
1.3138470649719238,0.02,0.03,-0.4,0.4
1.3272490501403809,0.0,-0.03,-0.13,0.13
1.336672067642212,-0.1,-0.15,0.09,0.2
1.342020034790039,-0.22,-0.25,0.17,0.37
1.343297004699707,-0.33,-0.28,0.19,0.47
1.345379114151001,-0.36,-0.24,0.17,0.46
1.3470909595489502,-0.28,-0.18,0.23,0.4
1.348541021347046,-0.14,-0.09,0.13,0.21
1.3500630855560303,0.02,0.07,0.08,0.1
1.351444959640503,0.19,0.26,0.09,0.33
1.352952003479004,0.32,0.29,-0.03,0.43
1.3546180725097656,0.42,0.28,-0.05,0.5
1.3600640296936035,0.47,0.21,0.04,0.51
1.3610289096832275,0.43,0.12,0.18,0.48
1.377289056777954,0.31,0.06,0.22,0.38
1.3780639171600342,0.14,0.0,0.21,0.25
1.3935401439666748,0.05,-0.05,0.25,0.25
1.3942129611968994,0.02,-0.09,0.23,0.24
1.4098641872406006,0.03,-0.11,0.14,0.18
1.4135611057281494,0.04,-0.12,0.11,0.16
1.4264659881591797,0.06,-0.15,0.06,0.17
1.4298040866851807,0.08,-0.29,-0.46,0.54
1.444838047027588,0.0,-0.3,-0.36,0.46
1.445972204208374,-0.13,-0.26,-0.1,0.3
1.4646670818328857,-0.08,-0.25,-0.05,0.26
1.467832088470459,-0.02,-0.23,-0.13,0.26
1.4769690036773682,0.04,-0.16,-0.09,0.18
1.4804952144622803,0.05,-0.04,-0.06,0.08
1.4943759441375732,0.05,0.02,-0.09,0.1
1.4975011348724365,0.12,0.02,-0.12,0.17
1.5092370510101318,0.2,-0.01,0.01,0.2
1.5125250816345215,0.25,-0.08,-0.18,0.31
1.5337278842926025,0.33,-0.13,-0.13,0.37
1.534771203994751,0.34,-0.3,0.13,0.47
1.5427749156951904,0.35,-0.61,0.45,0.83
1.5441429615020752,0.28,-0.7,-0.16,0.77
1.56113600730896,0.1,-0.75,-0.55,0.93
1.5649070739746094,0.03,-0.89,-0.31,0.94
1.5780589580535889,0.1,-1.07,0.13,1.08
1.5816481113433838,0.03,-1.17,-0.12,1.17
1.5932590961456299,0.03,-1.13,-0.53,1.24
1.5969200134277344,0.2,-1.12,-0.79,1.38
1.6145310401916504,0.42,-1.1,-1.16,1.65
1.615786075592041,0.66,-0.84,-1.43,1.78
1.6261389255523682,0.87,-0.58,-1.09,1.51
1.6274330615997314,0.72,-0.3,-1.39,1.59
1.644651174545288,0.5,-0.34,-1.87,1.96
1.6481711864471436,0.4,-0.15,-2.38,2.41
1.6594641208648682,0.27,-0.03,-3.01,3.02
1.663079023361206,0.1,-0.01,-2.95,2.95
1.6778972148895264,-0.04,-0.01,-2.5,2.5
1.6814711093902588,-0.05,-0.01,-1.91,1.91
1.6972980499267578,0.14,-0.04,-1.32,1.32
1.698132038116455,0.45,-0.13,-0.98,1.08
1.711780071258545,0.68,-0.16,-1.01,1.22
1.7158100605010986,0.82,0.01,-1.2,1.45
1.727066993713379,0.95,0.33,-1.17,1.54
1.7299292087554932,1.01,0.5,-0.68,1.31
1.7449071407318115,0.94,0.23,-0.38,1.03
1.7476370334625244,0.87,-0.11,-0.37,0.95
1.7593519687652588,0.87,-0.69,-0.51,1.22
1.7626540660858154,0.81,-1.28,-1.25,1.96
1.782792091369629,0.64,-1.46,-1.82,2.41
1.783600091934204,0.69,-1.52,-1.93,2.55
1.7954471111297607,0.73,-1.81,-1.57,2.5
1.79899001121521,0.63,-2.12,-1.32,2.57
1.80839204788208,0.28,-2.2,-1.47,2.66
1.809683084487915,-0.14,-2.47,-1.78,3.04
1.8281819820404053,-0.09,-2.86,-2.25,3.64
1.8319342136383057,0.25,-3.21,-2.66,4.17
1.8429930210113525,0.85,-3.75,-2.15,4.4
1.8462588787078857,1.91,-3.71,-3.73,5.59
1.865117073059082,2.77,-2.51,-5.86,6.95
1.8658249378204346,2.77,-1.5,-5.51,6.34
1.880284070968628,2.61,-1.61,-3.41,4.58
1.8836970329284668,2.78,-1.95,-3.3,4.73
1.8933451175689697,2.78,-1.3,-3.12,4.37
1.8966891765594482,2.1,0.12,-2.09,2.96
1.9098269939422607,1.05,0.76,-1.53,2.0
1.9133222103118896,0.36,0.74,-1.89,2.06
1.9265780448913574,0.24,0.68,-2.37,2.47
1.9303438663482666,0.52,0.75,-2.04,2.23
1.9440019130706787,0.81,0.64,-1.24,1.61
1.945406198501587,0.73,0.67,-0.28,1.02
1.9646680355072021,0.2,1.16,0.99,1.53
1.968224048614502,-0.65,1.96,2.51,3.25
1.9750158786773682,-2.22,3.08,5.3,6.51
1.9763319492340088,-4.38,5.01,7.77,10.23
1.9934930801391602,-4.74,5.74,6.24,9.71
1.9970719814300537,-4.65,4.79,6.1,9.04
2.0108721256256104,-4.31,4.78,5.42,8.41
2.0141661167144775,-4.04,5.17,5.65,8.65
2.028064012527466,-3.83,5.15,5.52,8.46
2.0290791988372803,-4.18,5.28,6.31,9.22
2.0447919368743896,-4.74,4.83,7.07,9.78
2.0482161045074463,-4.86,3.85,6.81,9.2
2.0620970726013184,-4.58,2.7,6.16,8.13
2.065653085708618,-3.98,1.59,5.73,7.15
2.074323892593384,-3.4,0.69,4.81,5.93
2.075646162033081,-2.63,0.26,3.94,4.74
2.093454122543335,-1.7,0.14,3.48,3.87
2.097162961959839,-0.89,0.36,3.12,3.26
2.1116349697113037,-0.39,0.56,2.66,2.74
2.1130499839782715,-0.15,0.74,2.1,2.23
2.131366014480591,-0.12,0.82,1.57,1.77
2.135215997695923,-0.18,0.73,1.14,1.36
2.144329071044922,-0.17,0.37,0.77,0.87
2.1481339931488037,-0.26,0.05,0.25,0.36
2.161113977432251,-0.45,-0.17,-0.38,0.61
2.1647121906280518,-0.42,-0.43,-0.84,1.03
2.1773440837860107,-0.17,-0.56,-0.73,0.93
2.181256055831909,-0.05,-0.38,-0.59,0.7
2.196859121322632,-0.08,-0.27,-0.69,0.74
2.1977579593658447,-0.14,-0.38,-0.8,0.89
2.213916063308716,-0.3,-0.62,-0.75,1.01
2.216907024383545,-0.49,-0.78,-0.75,1.18
2.226747989654541,-0.66,-0.77,-0.82,1.3
2.2294580936431885,-0.66,-0.75,-0.77,1.26
2.2431840896606445,-0.52,-0.65,-0.7,1.08
2.24605393409729,-0.42,-0.54,-0.67,0.95
2.2610719203948975,-0.3,-0.42,-0.67,0.84
2.263643980026245,-0.21,-0.24,-0.7,0.76
2.282778024673462,-0.22,-0.08,-0.72,0.75
2.283951997756958,-0.27,-0.06,-0.86,0.9
2.291995048522949,-0.15,-0.06,-0.97,0.98
2.292772054672241,0.06,-0.18,-1.07,1.08
2.312983989715576,0.31,-0.48,-1.3,1.42
2.3164689540863037,0.66,-0.8,-1.46,1.79
2.3263418674468994,0.97,-1.12,-1.6,2.18
2.3302671909332275,1.08,-1.24,-1.58,2.28
2.3430190086364746,0.99,-1.24,-1.33,2.07
2.3466498851776123,0.77,-1.21,-1.08,1.79
2.3657619953155518,0.46,-1.13,-0.85,1.48
2.367069959640503,0.19,-0.9,-0.56,1.07
2.380223035812378,-0.04,-0.67,-0.41,0.78
2.383742094039917,-0.13,-0.59,-0.38,0.71
2.393864870071411,-0.11,-0.73,-0.37,0.82
2.397585153579712,-0.06,-0.99,-0.46,1.09
2.409830093383789,-0.08,-1.26,-0.46,1.34
2.413224935531616,-0.14,-1.42,-0.37,1.47
2.426100015640259,-0.15,-1.44,-0.55,1.54
2.429030179977417,0.08,-1.46,-1.54,2.12
2.4502170085906982,0.39,-1.34,-1.07,1.75
2.451474905014038,0.38,-0.97,-0.95,1.4
2.4613780975341797,0.36,-0.75,-0.95,1.26
2.4648091793060303,0.44,-0.76,-0.86,1.22
2.4752871990203857,0.51,-0.76,-0.91,1.29
2.4766409397125244,0.53,-0.84,-0.98,1.39
2.494629144668579,0.5,-0.94,-0.99,1.45
2.4980320930480957,0.45,-1.07,-1.2,1.66
2.51186203956604,0.43,-1.17,-1.81,2.19
2.5153229236602783,0.66,-1.2,-2.11,2.51
2.5349950790405273,0.84,-1.25,-2.37,2.8
2.536320924758911,1.0,-1.23,-2.46,2.92
2.5424211025238037,1.25,-0.98,-2.38,2.86
2.5432560443878174,1.33,-0.65,-2.24,2.68
2.5611488819122314,1.22,-0.36,-2.04,2.4
2.565284013748169,0.93,-0.22,-1.9,2.12
2.576972007751465,0.64,-0.29,-1.88,2.0
2.580794095993042,0.52,-0.46,-1.89,2.01
2.594106912612915,0.45,-0.53,-2.18,2.28
2.597982168197632,0.48,-0.62,-2.36,2.48
2.617713212966919,0.51,-0.74,-2.6,2.75
2.6186070442199707,0.53,-0.87,-2.83,3.0
2.625541925430298,0.67,-0.94,-3.0,3.21
2.6267049312591553,0.88,-0.95,-3.16,3.41
2.6454551219940186,1.04,-0.97,-3.25,3.54
2.6490609645843506,1.17,-0.85,-3.26,3.56
2.661212205886841,1.14,-0.55,-3.08,3.32
2.664621114730835,0.99,-0.25,-2.85,3.02
2.6765339374542236,0.68,-0.03,-2.62,2.7
2.68025803565979,0.39,0.08,-2.44,2.47
2.692939043045044,0.24,0.08,-2.43,2.44
2.694244146347046,0.3,0.05,-2.6,2.61
2.714794874191284,0.5,-0.03,-2.85,2.89
2.7184979915618896,0.69,-0.03,-3.04,3.11
2.7273480892181396,0.79,0.02,-2.98,3.08
2.7312660217285156,0.71,0.17,-2.63,2.72
2.7445662021636963,0.52,0.29,-2.11,2.19
2.7485620975494385,0.15,0.39,-1.73,1.77
2.7603859901428223,-0.25,0.46,-1.51,1.59
2.764228105545044,-0.37,0.54,-1.67,1.79
2.7819631099700928,-0.19,0.7,-2.12,2.24
2.78288197517395,0.29,0.77,-2.77,2.88
2.794174909591675,0.93,1.06,-3.66,3.92
2.7954750061035156,1.56,1.59,-4.13,4.69
2.8113958835601807,2.0,1.88,-4.02,4.86
2.8149449825286865,2.06,2.1,-3.79,4.79
2.826915979385376,1.97,2.46,-3.87,4.99
2.830828905105591,1.84,2.78,-3.76,5.02
2.8431479930877686,1.44,2.64,-2.58,3.96
2.8465490341186523,1.02,2.47,-2.77,3.84
2.865299940109253,0.91,2.48,-3.22,4.16
2.8666200637817383,1.27,2.42,-3.39,4.35
2.881685972213745,1.43,2.19,-3.36,4.25
2.8850529193878174,1.18,1.79,-3.38,4.0
2.891407012939453,1.16,1.4,-3.09,3.58
2.8926799297332764,1.23,0.7,-2.27,2.67
2.9102561473846436,0.78,0.02,-1.44,1.63
2.9142282009124756,-0.18,-0.22,-1.24,1.27
2.9263641834259033,-0.99,-0.08,-1.11,1.48
2.9289939403533936,-1.45,0.15,-0.87,1.69
2.9532549381256104,-1.6,0.39,-0.61,1.75
2.9551920890808105,-1.62,0.55,-0.79,1.88
2.958376169204712,-1.66,0.72,-1.21,2.17
2.959192991256714,-1.82,1.01,-1.44,2.53
2.978123903274536,-2.17,1.71,-0.94,2.91
2.981282949447632,-2.72,2.58,0.18,3.75
2.994075059890747,-3.72,3.59,1.77,5.46
2.9976541996002197,-4.72,4.76,2.56,7.17
3.0100760459899902,-5.2,5.9,2.92,8.38
3.0138580799102783,-5.28,6.4,3.94,9.18
3.031130075454712,-5.02,6.46,4.5,9.33
3.0319809913635254,-4.52,6.16,4.18,8.7
3.0477590560913086,-3.77,5.53,3.65,7.62
3.0511600971221924,-2.68,4.8,3.45,6.49
3.0582449436187744,-1.79,4.27,3.47,5.78
3.059556007385254,-1.19,3.97,3.25,5.26
3.077322006225586,-0.68,3.52,2.82,4.56
3.0810868740081787,-0.21,3.01,2.38,3.84
3.0933780670166016,0.46,2.3,1.96,3.05
3.0975260734558105,0.95,1.78,1.55,2.54
3.1151111125946045,1.54,1.5,0.9,2.33
3.1162731647491455,2.31,1.32,0.18,2.66
3.1292970180511475,2.69,1.89,0.26,3.29
3.1331980228424072,2.81,2.8,0.2,3.97
3.1437718868255615,2.85,3.02,-0.51,4.18
3.147199869155884,2.98,2.75,-1.4,4.28
3.1603171825408936,3.02,2.49,-2.01,4.4
3.163771867752075,2.82,2.22,-2.76,4.52
3.1766788959503174,2.62,2.15,-3.44,4.82
3.179713010787964,2.64,2.12,-3.32,4.74
3.194671869277954,2.33,2.27,-2.84,4.31
3.1956069469451904,1.71,2.63,-2.56,4.04
3.211268186569214,1.35,2.87,-2.4,3.97
3.2147109508514404,1.09,3.07,-2.2,3.93
3.2290310859680176,0.88,3.38,-1.9,3.97
3.2325079441070557,0.67,3.43,-1.62,3.85
3.243537187576294,0.45,3.17,-1.14,3.39
3.2467710971832275,0.14,2.6,-0.43,2.63
3.2618038654327393,-0.33,1.93,0.39,1.99
3.264177083969116,-1.09,1.84,0.48,2.19
3.2829959392547607,-1.6,2.11,0.29,2.66
3.2839181423187256,-1.62,2.01,0.18,2.58
3.296373128890991,-1.42,1.36,0.38,2.0
3.2992990016937256,-1.28,1.23,0.06,1.77
3.310715913772583,-1.35,0.29,-0.4,1.43
3.314164876937866,-0.4,-1.0,0.24,1.1
3.327972173690796,0.15,-1.31,-0.25,1.34
3.331230878829956,0.54,-1.51,-0.97,1.87
3.3435909748077393,-0.16,-1.49,-1.38,2.03
3.347475051879883,-1.93,0.83,-0.78,2.24
3.359943151473999,-1.76,2.21,1.05,3.01
3.361346960067749,-1.46,2.1,1.33,2.88
3.3805789947509766,-1.11,1.3,0.38,1.75
3.384432077407837,0.28,0.38,-0.25,0.53
3.3940389156341553,0.43,-1.25,-1.1,1.71
3.3979132175445557,-0.32,-2.16,-2.87,3.6
3.4103660583496094,-0.07,-0.73,0.7,1.01
3.414141893386841,-1.5,-1.03,-0.99,2.07
3.4263970851898193,-1.29,-1.14,0.6,1.82
3.4288220405578613,-1.42,-0.71,0.48,1.65
3.451184034347534,-1.5,-0.47,-0.48,1.64
3.4525110721588135,-0.7,-0.77,1.07,1.49
3.462312936782837,-0.21,-0.44,1.86,1.92
3.466042995452881,0.18,0.51,2.07,2.13
3.4751460552215576,2.4,1.55,1.86,3.4
3.4764511585235596,3.65,2.52,-1.14,4.57
3.493544101715088,3.73,2.31,-5.58,7.09
3.498044013977051,3.48,2.36,-6.06,7.37
3.5096089839935303,2.12,1.45,-3.38,4.24
3.512479066848755,-0.53,-1.49,-1.49,2.17
3.5354058742523193,-2.16,-3.35,0.87,4.07
3.536799192428589,-2.05,-3.01,2.21,4.25
3.5425870418548584,-1.47,-1.81,1.76,2.92
3.5439000129699707,-0.58,-1.07,0.71,1.4
3.561336040496826,-0.39,-0.11,0.34,0.52
3.565171003341675,-0.39,0.59,0.9,1.14
3.5765411853790283,-0.32,0.64,0.77,1.05
3.5802419185638428,-0.08,0.65,-0.04,0.65
3.5936172008514404,0.56,0.71,-0.85,1.24
3.5976459980010986,1.22,0.53,-2.38,2.72
3.6149041652679443,1.78,-0.38,-2.97,3.48
3.616244077682495,2.0,-1.79,-1.77,3.21
3.6251871585845947,2.12,-2.51,0.48,3.32
3.626455068588257,2.7,-3.42,0.8,4.43
3.643965005874634,2.64,-3.93,2.8,5.5
3.6477270126342773,1.86,-2.96,3.49,4.93
3.6606760025024414,2.31,-1.96,2.84,4.15
3.6643190383911133,2.82,-0.7,3.23,4.34
3.6780951023101807,2.69,0.42,2.37,3.6
3.6816670894622803,3.05,-0.19,1.23,3.29
3.692913055419922,2.43,-0.68,2.15,3.31
3.6938421726226807,1.7,-0.45,1.37,2.22
3.7128589153289795,1.37,-0.66,0.18,1.53
3.716506004333496,0.85,-0.62,-0.44,1.14
3.727086067199707,0.46,-0.33,-0.46,0.72
3.7293410301208496,0.18,-0.04,-0.29,0.34
3.743293046951294,-0.02,0.39,-0.23,0.45
3.7457849979400635,-0.68,1.84,-0.36,1.99
3.7610180377960205,-0.99,1.58,-2.59,3.19
3.764256000518799,-2.23,2.44,-1.96,3.84
3.7779018878936768,-2.59,2.24,-3.03,4.57
3.7791640758514404,-2.67,1.88,-3.86,5.05
3.798179864883423,-3.33,1.3,-2.9,4.6
3.801086187362671,-3.73,1.0,-2.62,4.66
3.8103339672088623,-3.68,1.13,-2.52,4.6
3.8131091594696045,-3.46,1.64,-2.07,4.35
3.8279879093170166,-3.14,2.39,-1.71,4.3
3.830759048461914,-2.74,2.58,-1.52,4.05
3.844702959060669,-2.25,2.28,-1.61,3.58
3.847399950027466,-1.58,1.99,-2.13,3.31
3.865741014480591,-1.09,1.62,-2.24,2.97
3.86708402633667,-0.74,1.24,-1.95,2.42
3.8784029483795166,-0.5,1.15,-1.76,2.16
3.881364107131958,-0.28,1.25,-1.38,1.88
3.8942620754241943,-0.04,1.2,-0.94,1.52
3.8976399898529053,0.12,0.99,-0.69,1.21
3.9097859859466553,0.08,0.79,-0.37,0.87
3.913287878036499,-0.09,0.98,-0.27,1.02
3.9263110160827637,0.05,2.44,-0.45,2.48
3.929903984069824,-0.51,3.24,3.12,4.52
3.9445722103118896,0.2,2.01,2.65,3.33
3.945434093475342,0.73,1.72,1.6,2.45
3.963081121444702,0.68,0.9,2.11,2.39
3.9667131900787354,1.1,-0.65,0.89,1.55
3.9769718647003174,0.79,-1.21,0.44,1.51
3.979692220687866,0.2,-0.9,0.75,1.18
3.993077039718628,-0.27,-0.61,0.5,0.83
3.9964139461517334,-0.82,0.13,0.85,1.18
4.010699033737183,-0.81,1.62,1.56,2.39
4.014211893081665,-0.63,2.35,5.41,5.93
4.031642198562622,-0.49,-1.56,2.3,2.82
4.032394170761108,0.2,-0.6,-1.5,1.62
4.044651985168457,-0.13,-1.44,0.14,1.45
4.045992136001587,-0.01,-1.73,0.33,1.76
4.0606911182403564,0.2,-2.06,0.39,2.1
4.064226865768433,-0.11,-2.94,1.1,3.14
4.077195882797241,-0.53,-3.46,1.18,3.69
4.080718040466309,-0.59,-3.48,1.13,3.7
4.093921899795532,-0.37,-2.69,0.99,2.89
4.097402095794678,0.05,-2.14,0.72,2.25
4.11149001121521,0.38,-1.94,0.54,2.04
4.112653970718384,0.79,-2.31,0.7,2.53
4.132440090179443,1.08,-2.13,1.05,2.6
4.1350390911102295,0.96,-0.89,1.09,1.7
4.143485069274902,0.64,0.16,1.28,1.44
4.146830081939697,0.28,1.14,1.31,1.75
4.160242080688477,0.11,1.63,1.14,1.99
4.163495063781738,-0.02,1.09,0.86,1.38
4.1762611865997314,0.11,0.27,0.95,0.99
4.1796979904174805,0.5,-0.24,1.64,1.73
4.198207139968872,0.94,-0.39,2.08,2.31
4.199086904525757,1.41,0.08,2.07,2.5
4.214091062545776,1.5,3.17,1.8,3.94
4.2181620597839355,2.04,2.98,1.92,4.09
4.22652006149292,2.58,1.29,1.48,3.24
4.229839086532593,2.14,1.01,0.89,2.52
4.242847204208374,1.3,1.19,-0.02,1.76
4.2463319301605225,1.16,1.41,-0.66,1.94
4.25934100151062,0.02,1.02,-0.74,1.26
4.263273000717163,-0.26,0.69,-0.53,0.9
4.277546167373657,1.04,0.27,-0.45,1.16
4.278672933578491,0.14,-0.66,-0.68,0.95
4.297701120376587,-0.86,-1.1,-0.98,1.7
4.300762891769409,-1.08,-1.83,-0.12,2.12
4.309963941574097,-0.89,-1.56,0.05,1.79
4.313003063201904,-0.91,0.02,-0.34,0.97
4.329228162765503,-1.15,0.82,-0.85,1.64
4.331705093383789,-1.42,1.03,-1.13,2.08
4.343226194381714,-1.97,0.71,-1.53,2.59
4.346612215042114,-2.39,-0.12,-1.59,2.87
4.359906911849976,-2.39,-0.87,-1.56,2.98
4.361032009124756,-2.0,-0.83,-1.05,2.4
4.378030061721802,-1.28,-0.76,-0.03,1.48
4.381840944290161,-0.77,-0.73,0.59,1.21
4.393533945083618,-0.33,0.12,0.3,0.46
4.397363901138306,0.16,0.38,-0.25,0.48
4.40946888923645,-0.14,0.01,-0.15,0.2
4.412147045135498,-0.26,0.17,-0.19,0.36
4.427048921585083,0.28,0.11,0.4,0.5
4.430682897567749,0.77,-0.5,0.82,1.23
4.444025039672852,-0.08,-1.15,0.81,1.4
4.445297956466675,-1.4,-0.75,-0.11,1.59
4.464726209640503,-2.15,0.5,-1.17,2.49
4.467211961746216,-2.82,-0.04,-2.03,3.47
4.474606037139893,-3.04,-0.89,-1.31,3.42
4.475908041000366,-2.36,-0.65,-0.49,2.49
4.4929821491241455,0.89,-1.09,0.42,1.46
4.497007131576538,2.84,-0.34,1.48,3.22
4.5103700160980225,4.55,0.36,1.09,4.69
4.513886213302612,4.6,-0.1,0.68,4.65
4.530821084976196,3.59,-0.89,0.05,3.69
4.5315680503845215,2.56,-1.29,0.1,2.86
4.547538995742798,1.95,-1.67,0.54,2.62
4.550857067108154,1.56,-1.41,0.95,2.3
4.557883024215698,1.06,-0.55,0.79,1.43
4.55915904045105,-0.18,-0.07,-0.21,0.28
4.577148199081421,-1.23,-0.02,-0.66,1.39
4.5809571743011475,-1.59,0.13,-0.45,1.65
4.5952231884002686,-0.94,-0.31,-0.4,1.06
4.599031209945679,-1.19,1.35,-0.19,1.8
4.615694046020508,-2.33,1.49,-0.68,2.84
4.617021083831787,-1.71,0.19,-1.45,2.25
4.630818128585815,-1.01,-0.54,-0.95,1.48
4.63431715965271,-0.16,-0.83,0.06,0.84
4.641156911849976,0.88,-1.72,0.89,2.12
4.641978025436401,0.41,-0.89,1.3,1.62
4.659929990768433,0.15,-0.66,0.34,0.75
4.663616895675659,-0.76,-0.92,-0.13,1.2
4.677298069000244,-1.63,-0.79,-0.79,1.97
4.680850028991699,-1.28,0.39,-0.08,1.34
4.697552919387817,0.78,1.01,0.59,1.4
4.698854207992554,1.07,0.6,-0.12,1.23
4.709312200546265,-0.44,0.18,-1.09,1.18
4.710148096084595,-1.15,-0.12,-1.31,1.74
4.72855806350708,-0.74,-1.02,-0.5,1.35
4.732306003570557,-0.07,-1.01,0.58,1.16
4.742983102798462,0.44,0.24,1.67,1.74
4.746250867843628,0.78,0.53,1.22,1.54
4.759489059448242,0.35,-0.13,0.31,0.48
4.762900114059448,0.06,-0.27,0.16,0.31
4.782587051391602,0.69,-0.15,-0.09,0.71
4.783726930618286,0.71,-0.19,0.6,0.94
4.7918541431427,0.05,1.93,0.33,1.95
4.793123006820679,-0.97,3.03,-0.72,3.26
4.811096906661987,-1.15,2.81,-0.59,3.09
4.8144471645355225,-0.94,1.84,-0.21,2.07
4.827710866928101,-0.09,0.55,-0.87,1.03
4.831324100494385,0.23,0.48,-0.67,0.85
4.844069004058838,0.44,0.21,-0.55,0.73
4.847909212112427,0.32,0.86,0.23,0.94
4.859566926956177,0.47,0.05,0.28,0.54
4.8604981899261475,0.4,-0.44,0.9,1.07
4.879090070724487,0.03,-0.05,0.68,0.68
4.880425214767456,-0.23,0.51,0.36,0.66
4.894015073776245,-0.07,0.12,0.23,0.26
4.897672891616821,-0.29,0.35,0.56,0.72
4.909934043884277,0.22,0.2,0.05,0.3
4.913532972335815,-0.05,0.56,0.14,0.57
4.927613973617554,-0.25,1.12,-0.09,1.15
4.931187868118286,0.26,0.66,-0.54,0.89
4.944782972335815,0.68,0.24,0.06,0.72
4.946162939071655,0.83,0.07,0.15,0.84
4.961756944656372,0.22,0.01,0.48,0.52
4.96573805809021,-0.16,0.07,0.24,0.29
4.976918935775757,-0.34,0.09,0.41,0.54
4.979351043701172,-0.76,0.43,0.81,1.19
4.993066072463989,1.49,-0.41,0.54,1.63
4.996062994003296,1.67,-0.13,-1.74,2.41
5.010348081588745,-0.29,-0.43,-4.83,4.85
5.013998031616211,0.51,-0.09,-3.5,3.53
5.0266358852386475,-1.29,-0.04,0.81,1.52
5.0280420780181885,-1.35,0.1,3.63,3.87
5.0450499057769775,-0.1,-0.02,3.28,3.28
5.048835039138794,0.44,-0.07,0.38,0.58
5.0603110790252686,0.05,0.0,-1.5,1.5
5.0634870529174805,-0.24,0.05,-1.47,1.49
5.078219175338745,-0.05,-0.01,-0.19,0.19
5.081727027893066,0.19,-0.06,0.86,0.88
5.092626094818115,0.13,-0.02,0.79,0.8
5.0965259075164795,-0.08,0.03,0.04,0.09
5.116499185562134,-0.13,0.03,-0.51,0.52
5.117328882217407,-0.04,-0.01,-0.52,0.52
5.1279590129852295,0.05,-0.02,-0.21,0.21
5.131363153457642,0.04,-0.01,0.06,0.07
5.144334077835083,0.01,0.0,0.09,0.09
5.147716999053955,0.01,0.0,-0.02,0.02
5.160071134567261,0.0,0.01,-0.15,0.15
5.163614988327026,-0.01,0.0,-0.18,0.18
5.177977085113525,-0.09,0.04,-0.04,0.1
5.181782007217407,0.03,-0.02,0.13,0.13
5.192790985107422,0.04,0.01,0.31,0.31
5.193997144699097,-0.03,0.0,0.12,0.12
5.212532997131348,0.0,0.01,0.02,0.02
5.216076135635376,-0.04,0.01,-0.06,0.07
5.226280927658081,-0.19,0.06,-0.03,0.2
5.228774070739746,-0.32,0.08,0.06,0.33
5.243604898452759,-0.2,0.02,0.07,0.21
5.247080087661743,-0.11,0.05,0.07,0.13
5.261170148849487,-0.18,0.03,0.09,0.2
5.265393972396851,-0.33,0.08,0.06,0.34
5.278062105178833,-0.4,0.08,0.02,0.4
5.279004096984863,-0.27,0.08,0.01,0.28
5.2977869510650635,-0.17,0.04,0.0,0.17
5.300901174545288,-0.08,0.02,-0.05,0.09
5.310141086578369,0.07,0.02,-0.1,0.12
5.313239097595215,0.43,0.15,-0.32,0.55
5.327820062637329,0.3,-0.35,-0.04,0.46
5.33080792427063,0.08,0.01,0.09,0.12
5.3440260887146,-0.03,0.04,0.18,0.18
5.3475401401519775,0.02,0.0,-0.03,0.03
5.3652589321136475,0.34,0.12,-0.34,0.49
5.366121053695679,0.12,-0.18,-0.06,0.22
5.380434036254883,0.03,0.02,-0.16,0.16
5.383774042129517,0.02,0.0,-0.03,0.03
5.393964052200317,0.1,0.04,-0.2,0.22
5.397472143173218,0.42,-0.04,-0.17,0.45
5.4110400676727295,0.29,-0.04,-0.56,0.63
5.414654970169067,0.26,-0.16,-0.01,0.3
5.425779104232788,0.3,-0.16,-0.17,0.38
5.4294421672821045,0.0,0.09,-0.12,0.15
5.444689989089966,0.37,0.01,-0.17,0.4
5.446069955825806,0.12,-0.11,0.1,0.19
5.462906122207642,0.07,0.01,-0.01,0.07
5.464943170547485,0.07,0.07,0.08,0.12
5.479008913040161,0.2,-0.11,0.06,0.23
5.481690168380737,0.19,-0.02,0.0,0.19
5.492974042892456,0.1,0.05,-0.04,0.11
5.496293067932129,0.0,0.17,0.05,0.17
5.50964617729187,-0.05,0.01,0.04,0.06
5.5129969120025635,-0.25,0.15,0.19,0.34
5.527751207351685,-0.02,0.11,0.14,0.17
5.528963088989258,0.28,0.09,0.31,0.42
5.544255018234253,0.36,-0.02,0.27,0.45
5.547597169876099,0.43,-0.05,0.34,0.55
5.562308073043823,0.73,-0.13,0.12,0.75
5.56636118888855,1.04,0.0,0.5,1.15
5.576548099517822,1.12,0.03,0.39,1.18
5.580375909805298,1.21,0.04,0.18,1.22
5.592773199081421,1.48,0.02,0.18,1.49
5.596242189407349,1.87,0.0,0.07,1.87
5.614229917526245,2.22,0.38,0.41,2.28
5.615537881851196,2.73,0.77,0.52,2.88
5.62532114982605,2.13,1.87,2.02,3.48
5.626055002212524,2.35,1.88,0.82,3.11
5.644621133804321,2.92,0.54,-0.99,3.13
5.648442983627319,3.45,0.87,0.23,3.56
5.659733057022095,4.15,0.57,1.34,4.39
5.662995100021362,3.51,-0.31,1.84,3.97
5.676317930221558,2.73,-0.31,2.18,3.5
5.679588079452515,2.94,-0.36,1.79,3.46
5.699847936630249,4.31,-0.81,1.84,4.75
5.7011940479278564,4.34,0.05,1.2,4.5
5.71222710609436,3.67,0.04,0.47,3.7
5.715727090835571,3.06,-0.14,0.33,3.08
5.724699020385742,2.63,-0.21,0.8,2.75
5.725940942764282,2.35,-0.26,0.97,2.55
5.743413209915161,2.22,-0.28,0.83,2.38
5.747225999832153,2.32,-0.26,0.55,2.39
5.759123086929321,2.43,-0.14,0.23,2.44
5.762281179428101,2.53,-0.15,0.11,2.53
5.780857086181641,2.49,-0.18,0.16,2.5
5.781708002090454,2.31,-0.2,0.27,2.33
5.795310020446777,1.94,-0.11,0.34,1.97
5.7973411083221436,1.56,-0.01,0.29,1.58
5.812920093536377,1.21,0.03,0.21,1.22
5.816662073135376,0.93,-0.01,0.09,0.93
5.826350927352905,0.77,0.0,0.14,0.78
5.830293893814087,0.62,0.09,0.27,0.68
5.844269037246704,0.47,0.16,0.36,0.61
5.8479859828948975,0.39,0.17,0.33,0.53
5.86360502243042,0.25,0.17,0.28,0.41
5.864777088165283,0.43,0.06,0.4,0.59
5.882704973220825,0.26,0.2,0.37,0.49
5.886781930923462,0.1,-0.04,0.43,0.44
5.890887975692749,0.44,-0.33,0.68,0.87
5.891701936721802,0.77,-0.29,0.77,1.12
5.91060209274292,0.75,-0.11,0.74,1.05
5.914340019226074,0.47,0.14,0.61,0.78
5.9248950481414795,-0.08,0.25,0.26,0.36
5.927744150161743,-0.26,0.1,0.06,0.28
5.948944091796875,0.02,0.02,0.26,0.26
5.9502599239349365,0.44,-0.02,0.45,0.62
5.961579084396362,0.63,-0.01,0.4,0.74
5.964646100997925,0.52,0.04,0.12,0.53
5.9777350425720215,0.3,0.03,-0.12,0.32
5.981296062469482,-0.13,0.18,-0.16,0.27
5.992956876754761,-0.6,0.15,-0.28,0.67
5.9964330196380615,-0.77,-0.07,-0.3,0.82
6.00958514213562,-0.79,-0.06,-0.12,0.8
6.012986898422241,-1.02,-0.04,-0.18,1.03
6.02764105796814,-1.12,-0.13,-0.46,1.21
6.028595209121704,-1.17,-0.19,-0.64,1.34
6.04631495475769,-1.05,-0.41,-0.79,1.37
6.049462080001831,-0.73,-0.6,-0.78,1.22
6.060335874557495,-0.47,-0.53,-0.63,0.94
6.062708139419556,-0.46,-0.42,-0.59,0.85
6.076263189315796,-0.52,-0.42,-0.7,0.96
6.078847169876099,-0.62,-0.37,-0.73,1.02
6.093938112258911,-0.67,-0.22,-0.78,1.05
6.096407175064087,-0.72,0.0,-0.8,1.07
6.11535906791687,-1.11,0.15,-0.94,1.46
6.116702079772949,-1.51,0.16,-1.33,2.01
6.12522292137146,-1.78,0.21,-1.3,2.21
6.125956058502197,-2.03,0.28,-1.14,2.34
6.145932912826538,-2.41,0.2,-1.08,2.64
6.1494481563568115,-2.9,0.22,-1.0,3.07
6.159618139266968,-3.32,0.0,-1.06,3.48
6.163500070571899,-3.3,-0.45,-1.13,3.51
6.176517009735107,-2.7,-0.89,-1.06,3.03
6.180078983306885,-2.43,-1.25,-1.27,3.01
6.20032811164856,-2.5,-0.59,-1.97,3.23
6.201718091964722,1.69,6.41,-2.69,7.15
6.2120490074157715,6.14,-0.54,0.75,6.2
6.215517997741699,4.76,-8.47,-0.57,9.73
6.22481107711792,-0.14,-3.02,-3.61,4.7
6.226110219955444,-3.53,1.02,-9.99,10.64
6.245179891586304,-4.37,1.19,-2.46,5.15
6.2491419315338135,-5.52,1.3,7.86,9.69
6.259737014770508,-6.36,2.2,7.92,10.39
6.263630151748657,-6.47,2.99,3.7,8.03
6.277796983718872,-6.23,2.79,0.36,6.83
6.279161214828491,-4.0,0.77,-2.68,4.87
6.296921968460083,-1.21,-0.06,-2.85,3.09
6.301006078720093,-0.45,0.21,-1.1,1.2
6.310461044311523,-1.12,0.77,-0.43,1.42
6.313152074813843,-4.81,0.82,-3.17,5.81
6.326742887496948,-1.19,0.37,-3.2,3.43
6.329912900924683,0.18,-0.13,-0.85,0.87
6.3451759815216064,0.13,-0.09,0.95,0.96
6.3476080894470215,-0.82,0.21,1.01,1.31
6.366559028625488,-1.8,0.41,0.33,1.87
6.367725133895874,-2.1,0.5,-0.22,2.16
6.375756025314331,-1.08,0.27,0.0,1.11
6.376579999923706,-0.1,0.05,0.44,0.45
6.396334886550903,0.21,-0.06,0.86,0.88
6.399789094924927,-0.14,0.11,0.71,0.73
6.409934043884277,-0.34,0.13,0.0,0.36
6.413776159286499,-0.26,0.11,-0.65,0.7
6.426220178604126,-0.02,0.04,-1.25,1.25
6.429646015167236,0.31,-0.13,-1.65,1.68
6.444456100463867,0.49,-0.13,-1.19,1.29
6.445389032363892,0.51,-0.07,-0.27,0.58
6.461438894271851,0.13,0.03,0.5,0.51
6.46538519859314,-0.44,0.11,0.75,0.87
6.476835012435913,-0.67,0.13,0.09,0.68
6.478904962539673,-0.48,0.14,-0.29,0.57
6.494951009750366,-0.04,0.08,-0.61,0.61
6.4988391399383545,0.28,-0.04,-0.65,0.7
6.509960889816284,0.31,0.06,-0.47,0.56
6.513688087463379,0.14,-0.05,-0.38,0.4
6.53146505355835,-0.03,-0.08,-0.43,0.43
6.5323169231414795,-0.12,-0.01,-0.53,0.54
6.547111988067627,0.12,-0.09,-0.44,0.46
6.550406217575073,0.34,-0.02,-0.16,0.37
6.560539960861206,0.43,-0.09,-0.05,0.44
6.564327955245972,0.33,-0.03,-0.21,0.39
6.57661509513855,0.35,0.05,0.0,0.35
6.578978061676025,0.44,-0.04,-0.33,0.55
6.592983961105347,0.22,0.1,0.04,0.24
6.595438003540039,-0.15,0.16,0.25,0.33
6.614248037338257,-0.24,0.26,0.02,0.35
6.615442991256714,-0.14,0.16,0.08,0.22
6.6258580684661865,0.27,0.07,-0.08,0.29
6.62716007232666,0.36,0.33,0.46,0.67
6.644032001495361,0.36,0.14,0.03,0.38
6.647698163986206,0.26,0.39,0.24,0.52
6.659759998321533,0.4,0.59,0.12,0.72
6.663496017456055,0.88,0.16,-0.41,0.98
6.677255868911743,1.05,0.04,-0.27,1.08
6.680952072143555,1.26,0.41,0.0,1.32
6.697295904159546,0.64,0.34,0.91,1.16
6.6981260776519775,1.08,0.76,-0.14,1.32
6.714810132980347,2.28,0.75,0.54,2.46
6.719044923782349,2.6,0.03,0.56,2.65
6.727083921432495,2.42,0.45,0.86,2.6
6.730332136154175,1.39,0.55,0.37,1.53
6.743360996246338,-0.09,0.71,0.36,0.8
6.746802091598511,-0.72,0.52,0.31,0.94
6.7597880363464355,1.32,0.65,1.07,1.81
6.763305902481079,2.81,0.48,0.58,2.9
6.777189016342163,3.35,0.54,0.92,3.51
6.778341054916382,2.83,0.7,1.0,3.08
6.797969102859497,1.46,0.9,0.93,1.95
6.8002989292144775,1.26,1.12,1.28,2.11
6.810411214828491,1.53,1.83,1.04,2.6
6.812601089477539,2.51,1.95,1.16,3.38
6.827876091003418,5.24,2.49,2.14,6.18
6.831678152084351,4.66,2.82,1.6,5.67
6.843250036239624,3.34,3.02,2.33,5.07
6.847115993499756,4.15,3.11,2.65,5.82
6.861131906509399,5.7,3.3,2.89,7.19
6.86254096031189,6.59,3.42,2.8,7.93
6.879942178726196,6.14,3.38,2.16,7.33
6.883270025253296,4.27,3.91,1.16,5.9
6.89341402053833,0.92,4.56,0.41,4.66
6.896169900894165,-1.44,7.83,-0.91,8.01
6.910339117050171,0.08,9.48,-1.84,9.65
6.913900136947632,4.12,6.99,-1.17,8.19
6.9276440143585205,7.8,4.98,0.04,9.25
6.931326150894165,9.7,4.33,1.85,10.78
6.944424867630005,11.73,3.48,3.05,12.6
6.945890188217163,9.53,-0.46,2.71,9.91
6.96250319480896,0.19,-0.38,-0.98,1.06
6.966038942337036,-4.16,1.77,-5.29,6.95
6.978373050689697,-3.19,2.37,-2.76,4.83
6.982079029083252,0.62,3.9,2.39,4.61
6.992794990539551,5.17,1.7,3.31,6.36
6.996666193008423,8.22,-0.1,3.04,8.76
7.009756088256836,9.59,-0.34,1.93,9.78
7.011873960494995,9.72,-0.3,-0.05,9.72
7.0339062213897705,9.06,-0.28,-1.58,9.2
7.03516411781311,7.79,0.0,-1.58,7.94
7.044650077819824,6.17,0.15,-0.52,6.19
7.048357009887695,4.68,0.26,0.66,4.73
7.06017804145813,3.72,0.33,1.71,4.1
7.0630409717559814,3.42,0.38,2.06,4.01
7.07811713218689,3.43,0.56,1.54,3.8
7.0805840492248535,3.49,0.84,1.03,3.73
7.094383001327515,3.38,1.06,0.76,3.62
7.097222089767456,3.05,1.28,0.63,3.36
7.1164960861206055,2.43,1.59,1.19,3.13
7.11733603477478,2.02,1.61,1.1,2.8
7.127995014190674,1.26,1.86,0.51,2.3
7.131162881851196,0.0,2.18,-0.23,2.19
7.1441490650177,-0.55,2.15,-0.55,2.28
7.147867918014526,-0.61,2.14,-0.33,2.24
7.16018009185791,-0.73,2.11,-0.25,2.24
7.163614988327026,-1.15,2.08,-0.44,2.41
7.1765758991241455,-1.7,2.14,-0.65,2.8
7.1805260181427,-2.16,2.07,-0.82,3.1
7.197339057922363,-2.55,2.06,-0.93,3.4
7.19858193397522,-2.93,2.18,-1.16,3.83
7.209500074386597,-3.18,2.28,-1.51,4.19
7.210329055786133,-3.32,2.37,-1.78,4.45
7.22713303565979,-3.56,2.51,-1.91,4.75
7.23115086555481,-3.92,2.59,-2.04,5.12
7.240755081176758,-4.47,2.71,-2.08,5.62
7.2418739795684814,-5.05,2.8,-2.16,6.16
7.261457204818726,-5.39,2.68,-2.28,6.43
7.265438079833984,-5.54,2.75,-2.35,6.61
7.278048992156982,-5.83,2.76,-2.56,6.93
7.279337167739868,-6.34,2.42,-2.79,7.33
7.294394016265869,-7.11,1.78,-2.67,7.8
7.29665207862854,-8.0,1.37,-2.83,8.59
7.312135934829712,-8.17,0.73,-2.69,8.63
7.315613031387329,-7.84,0.35,-2.41,8.2
7.325931072235107,-7.42,0.34,-2.65,7.88
7.329451084136963,-7.3,0.27,-2.94,7.87
7.343149900436401,-7.42,-0.04,-3.3,8.12
7.346185922622681,-7.3,-0.31,-3.36,8.04
7.361253976821899,-6.87,-0.41,-3.03,7.51
7.362397909164429,-6.53,-0.45,-2.94,7.17
7.38164210319519,-6.68,-0.33,-3.15,7.39
7.384775876998901,-7.09,-0.02,-3.54,7.92
7.3933470249176025,-7.25,0.05,-3.77,8.17
7.396756887435913,-6.74,-0.04,-3.47,7.58
7.410829067230225,-6.09,-0.13,-3.29,6.92
7.413910150527954,-5.67,-0.43,-3.46,6.65
7.42643404006958,-5.7,-0.23,-3.29,6.58
7.430140018463135,1.73,11.72,7.54,14.04
7.448443174362183,11.55,14.27,4.98,19.02
7.449373960494995,15.12,4.88,-0.4,15.89
7.463781118392944,22.63,-0.96,-2.08,22.74
7.4671289920806885,14.17,-13.63,-11.72,22.88
7.475900888442993,-3.17,-10.86,-9.33,14.66
7.477216958999634,-12.71,-3.85,-2.36,13.48
7.4939539432525635,-13.86,-0.72,6.01,15.12
7.498136043548584,-10.82,3.34,10.03,15.12
7.509752035140991,-11.15,5.95,2.38,12.86
7.513460874557495,-14.42,8.38,-5.32,17.5
7.532932996749878,-13.37,9.43,-6.88,17.74
7.534192085266113,-4.2,1.77,-3.11,5.51
7.546390056610107,2.22,-0.85,-0.49,2.42
7.549463987350464,1.98,-0.81,-0.39,2.17
7.560648202896118,-0.14,-0.02,-1.11,1.11
7.56428599357605,-1.46,0.18,-1.1,1.83
7.577948093414307,-1.58,0.37,-0.24,1.64
7.5814759731292725,-1.17,0.28,0.25,1.22
7.5938332080841064,-0.7,0.15,0.37,0.8
7.59739089012146,-0.14,-0.07,0.09,0.18
7.611315011978149,0.59,-0.36,-0.22,0.72
7.6127588748931885,1.34,-0.47,-0.47,1.49
7.630702018737793,1.83,-0.68,-0.29,1.97
7.634248971939087,1.35,-0.12,-0.86,1.6
7.643265962600708,-1.71,0.68,-2.04,2.74
7.646780014038086,-3.34,0.06,-2.29,4.05
7.660773038864136,-2.1,0.73,-1.04,2.45
7.664102077484131,-0.76,-0.06,0.19,0.78
7.676410913467407,-0.14,0.05,0.69,0.7
7.6801159381866455,-0.16,-0.03,0.63,0.65
7.692815065383911,-0.62,0.13,-0.02,0.63
7.6940600872039795,-0.82,0.16,-0.65,1.05
7.714668035507202,-0.56,0.17,-0.68,0.89
7.7185351848602295,-0.21,0.14,-0.02,0.25
7.726612091064453,0.32,-0.12,0.27,0.43
7.730447053909302,0.58,0.03,0.53,0.78
7.743074178695679,0.29,-0.09,0.07,0.31
7.747035026550293,-0.18,-0.01,-0.55,0.57
7.759073972702026,-0.31,0.08,-0.81,0.87
7.762822866439819,-0.14,-0.07,-0.52,0.54
7.777915000915527,0.16,0.05,-0.19,0.25
7.779072999954224,0.06,0.01,0.02,0.06
7.796205043792725,0.2,-0.17,-0.33,0.42
7.7996509075164795,0.67,-0.19,-0.14,0.71
7.81026291847229,1.15,-0.16,0.14,1.16
7.813678979873657,0.84,0.18,0.3,0.9
7.826447010040283,0.1,-0.01,0.2,0.22
7.8298962116241455,-0.68,0.28,0.19,0.75
7.8435890674591064,-0.73,0.3,0.34,0.85
7.846984148025513,-0.35,0.3,0.39,0.6
7.860931158065796,-0.15,0.38,0.37,0.55
7.861993074417114,0.3,0.03,0.08,0.31
7.881428956985474,0.5,0.21,-0.08,0.54
7.884238958358765,0.57,0.26,0.16,0.64
7.893761873245239,0.69,0.18,0.0,0.71
7.896188974380493,0.72,-0.03,-0.12,0.73
7.911444902420044,0.79,0.16,0.02,0.8
7.913755178451538,0.9,0.15,0.01,0.91
7.926354169845581,0.98,0.32,-0.23,1.05
7.929890871047974,1.1,0.24,-0.55,1.25
7.948688983917236,2.08,0.76,-0.35,2.24
7.949531078338623,4.27,2.37,1.06,4.99
7.96326208114624,5.79,1.47,2.89,6.63
7.965522050857544,4.33,1.26,2.8,5.3
7.977834939956665,1.77,2.39,2.47,3.86
7.981252908706665,0.22,2.83,1.96,3.44
7.990535020828247,2.02,3.44,2.2,4.55
7.991847038269043,6.22,3.83,1.39,7.43
8.010306119918823,7.2,4.67,1.34,8.68
8.014808893203735,4.26,4.55,0.76,6.27
8.026020050048828,3.9,4.58,1.92,6.31
8.026932954788208,5.74,4.62,1.63,7.54
8.048340082168579,7.08,4.93,1.43,8.74
8.051860094070435,7.79,4.37,1.56,9.06
8.057393074035645,8.54,3.61,1.3,9.36
8.058588027954102,6.58,3.83,1.2,7.7
8.0780930519104,2.0,5.37,-1.11,5.83
8.082243204116821,-0.51,7.37,-4.92,8.87
8.093723058700562,0.72,6.06,-4.94,7.85
8.097583055496216,3.16,4.25,-1.29,5.45
8.109858989715576,6.55,2.15,2.26,7.25
8.110771894454956,9.35,0.87,4.39,10.36
8.130810976028442,4.91,-2.27,2.38,5.9
8.134730100631714,-3.08,1.22,-3.41,4.75
8.143320083618164,-3.41,2.03,-4.79,6.22
8.147205114364624,2.18,0.11,0.81,2.32
8.158794164657593,7.31,-0.5,3.77,8.24
8.161388158798218,9.65,-1.09,2.13,9.94
8.177837133407593,9.98,-1.26,0.41,10.06
8.181674003601074,8.54,-0.9,-0.5,8.6
8.19657301902771,6.75,-1.02,-0.89,6.88
8.197419881820679,5.28,-0.94,0.06,5.36
8.211796998977661,4.24,-0.69,1.44,4.53
8.21409296989441,3.66,-0.44,1.77,4.08
8.229275941848755,3.52,-0.18,1.45,3.81
8.233254194259644,3.71,-0.01,0.86,3.8
8.243118047714233,4.04,0.17,0.56,4.08
8.246640920639038,4.13,0.35,0.8,4.22
8.260870218276978,3.78,0.54,1.2,4.0
8.26518988609314,3.18,0.6,1.56,3.59
8.28102707862854,2.59,0.78,1.64,3.16
8.282315969467163,2.06,1.07,1.47,2.74
8.297394037246704,1.56,1.29,0.95,2.23
8.301244020462036,1.22,1.44,0.58,1.97
8.309583902359009,1.32,1.54,0.74,2.15
8.313030004501343,1.05,1.74,0.7,2.14
8.32736611366272,0.67,1.89,0.42,2.04
8.330738067626953,0.32,2.01,0.25,2.05
8.343106985092163,-0.01,2.1,0.05,2.1
8.346912145614624,-0.34,2.14,-0.02,2.16
8.365134954452515,-0.54,2.05,0.02,2.12
8.366088151931763,-0.76,2.15,0.05,2.28
8.375746011734009,-1.17,2.35,-0.17,2.63
8.37696099281311,-1.58,2.48,-0.46,2.97
8.393830060958862,-1.89,2.6,-0.51,3.25
8.397739171981812,-2.18,2.75,-0.44,3.53
8.409255027770996,-2.81,3.03,-0.56,4.17
8.412818193435669,-3.89,3.18,-0.99,5.12
8.426117181777954,-4.78,2.83,-1.42,5.73
8.429768085479736,-5.14,2.49,-1.35,5.86
8.444374084472656,-5.24,2.34,-1.22,5.86
8.445313215255737,-5.32,2.27,-1.35,5.93
8.46287202835083,-5.47,2.21,-1.8,6.16
8.465841054916382,-5.8,1.88,-2.15,6.46
8.474416971206665,-6.4,1.6,-2.36,7.0
8.47575306892395,-6.96,1.27,-2.62,7.54
8.492783069610596,-7.4,1.01,-2.42,7.85
8.496544122695923,-7.86,0.67,-2.57,8.29
8.511393070220947,-7.79,0.17,-2.63,8.22
8.515153169631958,-7.53,0.0,-2.52,7.94
8.527228116989136,-7.53,-0.03,-2.83,8.04
8.528388023376465,-7.74,-0.41,-3.35,8.44
8.543984174728394,-7.65,-0.66,-3.51,8.44
8.546787023544312,-7.44,-0.58,-3.43,8.21
8.559692144393921,-7.66,-0.59,-3.49,8.43
8.563186883926392,-8.11,-0.49,-3.65,8.9
8.575659990310669,-8.48,-0.35,-3.69,9.25
8.578988075256348,-8.31,-0.07,-3.49,9.01
8.594967126846313,0.51,12.28,1.97,12.44
8.598859071731567,10.97,13.89,5.11,18.42
8.611294031143188,14.01,4.17,4.12,15.18
8.612722158432007,18.62,-5.1,-3.4,19.6
8.630812883377075,7.92,-14.17,-9.93,19.02
8.634515047073364,-9.16,-8.09,-8.54,14.9
8.643468141555786,-14.49,-3.45,-1.97,15.02
8.647070169448853,-12.66,1.28,9.8,16.06
8.657146215438843,-13.24,8.55,7.97,17.66
8.658469915390015,-18.13,13.39,-5.17,23.12
8.678178071975708,-12.99,3.76,-8.01,15.71
8.68206000328064,-0.51,0.32,0.31,0.67
8.69451904296875,2.69,-0.75,1.12,3.0
8.695915937423706,0.8,-0.97,-1.44,1.91
8.714223146438599,-1.83,0.72,-2.33,3.04
8.717894077301025,-2.59,0.53,-1.76,3.17
8.724385023117065,-2.07,0.52,-0.25,2.14
8.72572112083435,-1.4,0.28,0.71,1.59
8.743240118026733,-1.05,0.18,0.74,1.29
8.746747016906738,-0.77,0.11,0.17,0.79
8.759866952896118,-0.4,0.04,-0.29,0.49
8.763653993606567,-0.04,-0.02,-0.48,0.48
8.77814507484436,0.43,-0.21,-0.56,0.73
8.779388189315796,1.06,-0.34,-0.43,1.19
8.798022031784058,0.83,0.04,-1.18,1.44
8.801186084747314,-1.32,0.34,-1.9,2.33
8.810054063796997,-1.63,0.13,-2.27,2.79
8.813130140304565,-0.79,0.23,-0.59,1.01
8.82754921913147,0.11,-0.09,0.26,0.29
8.830717086791992,0.28,-0.16,0.28,0.42
8.842622995376587,-0.32,0.07,-0.01,0.32
8.846036195755005,-0.93,0.07,-0.67,1.14
8.864744901657104,-0.62,0.26,-0.74,0.99
8.865670919418335,0.18,-0.18,-0.46,0.52
8.879830121994019,0.89,-0.01,0.06,0.89
8.883109092712402,0.89,-0.3,0.03,0.93
8.893530130386353,-0.17,0.2,-0.05,0.26
8.897116899490356,-1.02,0.22,-0.33,1.09
8.909800052642822,-1.26,0.37,-0.04,1.31
8.913619995117188,-0.89,0.14,0.06,0.9
8.925997018814087,-0.59,0.27,0.29,0.71
8.928550004959106,-0.27,0.0,-0.09,0.28
8.947575092315674,-0.1,0.17,-0.08,0.21
8.948778867721558,0.28,-0.08,-0.2,0.35
8.959464073181152,0.66,-0.17,-0.17,0.7
8.960793018341064,0.87,-0.2,-0.39,0.97
8.977648973464966,0.92,-0.23,-0.56,1.1
8.981463193893433,0.59,-0.1,-0.28,0.66
8.992995023727417,0.13,0.06,0.18,0.23
8.99667501449585,-0.25,0.1,0.32,0.41
9.010467052459717,-0.27,0.24,0.45,0.57
9.013788938522339,0.01,0.24,0.52,0.57
9.031323194503784,0.41,0.08,0.34,0.53
9.032601118087769,0.59,0.24,0.38,0.74
9.044579029083252,0.56,0.22,0.54,0.8
9.047446012496948,0.37,0.34,0.61,0.79
9.06015419960022,0.36,0.34,0.29,0.57
9.06321406364441,0.83,0.4,-0.03,0.92
9.078686952590942,0.9,0.47,0.11,1.02
9.082504987716675,0.73,0.93,-0.36,1.23
9.090581178665161,0.7,0.8,0.24,1.08
9.091737985610962,2.82,2.34,0.64,3.71
9.118316888809204,4.96,1.45,2.06,5.56
9.119356870651245,4.25,1.18,1.87,4.79
9.12516188621521,1.85,2.44,0.99,3.21
9.12599802017212,0.77,2.55,0.52,2.71
9.144154071807861,2.46,2.56,1.55,3.87
9.148150205612183,5.68,2.69,1.58,6.48
9.159771203994751,4.34,3.17,0.81,5.43
9.163318872451782,4.57,3.25,0.87,5.67
9.176293134689331,3.2,4.03,1.47,5.35
9.1791090965271,4.57,4.51,1.7,6.64
9.199799060821533,5.47,5.15,1.76,7.71
9.201250076293945,5.96,6.26,2.54,9.0
9.211942911148071,8.11,6.56,4.16,11.22
9.215490102767944,9.48,7.63,5.23,13.24
9.224781036376953,9.56,3.49,4.56,11.15
9.226083040237427,6.91,-1.71,3.3,7.84
9.243342161178589,0.77,3.82,1.06,4.03
9.24713921546936,-2.02,15.57,-1.35,15.75
9.261247873306274,2.77,12.0,-3.75,12.87
9.26576018333435,9.73,7.15,-5.15,13.12
9.277952909469604,13.3,6.52,-3.46,15.21
9.279200077056885,16.23,3.34,-2.16,16.71
9.294432878494263,11.72,-4.03,-1.59,12.49
9.296771049499512,-1.41,-0.74,-7.08,7.25
9.310410022735596,-6.13,1.96,-9.33,11.33
9.3130362033844,-3.87,3.86,-0.53,5.49
9.327889204025269,0.15,4.4,5.95,7.4
9.330343961715698,4.83,0.04,6.06,7.74
9.343345880508423,8.33,-1.05,6.74,10.76
9.346518993377686,9.73,-0.95,4.45,10.74
9.366414070129395,9.96,-1.75,0.23,10.11
9.367758989334106,9.62,-2.77,-2.56,10.33
9.3753821849823,8.75,-1.62,-1.55,9.03
9.376248121261597,7.39,-0.94,0.43,7.46
9.393859148025513,5.18,-0.98,2.11,5.67
9.396056890487671,2.88,-0.99,2.98,4.26
9.411416053771973,1.81,-0.88,2.65,3.32
9.415191888809204,1.74,-0.53,1.35,2.26
9.425623178482056,1.85,-0.13,0.08,1.85
9.429233074188232,1.82,0.14,-0.37,1.86
9.448703050613403,1.7,0.32,0.05,1.73
9.449968099594116,1.45,0.41,0.86,1.73
9.458394050598145,1.0,0.7,1.14,1.67
9.459635019302368,0.46,1.17,0.62,1.4
9.477856874465942,0.24,1.59,-0.13,1.61
9.481628179550171,0.06,1.97,-0.61,2.06
9.493634939193726,-0.33,2.21,-1.0,2.44
9.497195959091187,-0.7,2.36,-1.02,2.66
9.511425018310547,-1.45,2.72,-1.26,3.32
9.515075922012329,-2.51,3.03,-1.66,4.27
9.526123046875,-3.65,3.16,-1.89,5.18
9.527045011520386,-4.6,3.08,-2.02,5.89
9.546022176742554,-5.13,3.03,-1.89,6.25
9.549490213394165,-5.45,3.15,-1.72,6.52
9.55972409248352,-5.88,3.35,-1.81,7.0
9.561123132705688,-6.34,3.46,-1.94,7.47
9.576844930648804,-6.6,3.53,-1.93,7.72
9.58072018623352,-6.52,3.55,-1.94,7.67
9.592801094055176,-6.26,3.57,-1.83,7.43
9.59649920463562,-6.25,3.65,-1.9,7.48
9.610637903213501,-6.51,3.36,-2.03,7.6
9.611731052398682,-7.25,2.5,-1.97,7.91
9.631294012069702,-8.27,1.63,-2.12,8.69
9.63393521308899,-9.28,0.09,-2.34,9.57
9.641337156295776,-9.6,-0.44,-2.74,9.99
9.642627954483032,-9.72,-0.8,-3.22,10.27
9.66121792793274,-9.56,-1.07,-3.67,10.29
9.664867162704468,-9.24,-1.14,-3.88,10.08
9.676354169845581,-9.09,-1.06,-3.99,9.98
9.680203199386597,-9.48,-0.68,-4.07,10.33
9.694483041763306,-10.03,-0.4,-4.14,10.85
9.695740938186646,-10.16,-0.29,-3.96,10.9
9.712755918502808,-9.86,-0.16,-3.57,10.48
9.71639609336853,-1.03,12.14,0.59,12.19
9.726783990859985,14.41,23.42,3.82,27.76
9.729145050048828,13.62,3.62,4.85,14.9
9.744554042816162,17.16,-7.64,0.43,18.78
9.748419046401978,13.08,-17.31,-0.9,21.71
9.759078025817871,-4.75,-10.37,-4.76,12.35
9.762486219406128,-14.11,-3.37,-3.6,14.94
9.783019065856934,-13.82,1.61,4.77,14.7
9.784627199172974,-15.56,10.64,3.7,19.2
9.792242050170898,-19.27,12.7,-5.67,23.76
9.79358696937561,-10.0,1.23,-3.7,10.73
9.810981035232544,1.03,0.19,3.75,3.89
9.814903020858765,2.03,-0.81,0.85,2.34
9.826471090316772,-0.29,-0.11,-2.63,2.64
9.830022096633911,-1.72,0.56,-3.77,4.18
9.844616174697876,-1.8,0.45,-3.11,3.62
9.848222970962524,-1.23,0.29,-1.32,1.82
9.860949993133545,-0.86,0.04,-0.25,0.89
9.86236310005188,-0.79,0.02,0.03,0.79
9.880973100662231,-1.53,0.57,-0.72,1.78
9.88457202911377,-2.98,0.62,-1.33,3.32
9.893485069274902,-2.73,0.59,-1.61,3.22
9.896921873092651,-1.29,0.1,-0.59,1.42
9.910299062728882,-0.14,-0.01,0.23,0.26
9.913731098175049,0.28,-0.24,0.32,0.48
9.92609190940857,0.0,-0.05,0.14,0.14
9.929447889328003,-0.36,-0.06,-0.19,0.41
9.94882607460022,-0.7,0.2,-0.19,0.75
9.949694871902466,-0.52,-0.1,-0.3,0.6
9.959684133529663,-0.34,0.18,0.1,0.39
9.961055040359497,-0.43,0.16,0.0,0.45
9.978424072265625,-0.52,-0.04,0.07,0.52
9.982492208480835,-0.63,0.28,-0.01,0.68
9.993133068084717,-0.78,0.25,-0.09,0.82
9.996700048446655,-0.3,-0.15,-0.5,0.6
10.009559869766235,0.28,0.33,-0.01,0.43
10.013253927230835,0.73,-0.38,-0.14,0.83
10.033618211746216,0.52,-0.05,-0.02,0.52
10.034930944442749,0.36,0.01,-0.14,0.38
10.04529595375061,0.67,-0.27,-0.17,0.74
10.048681020736694,0.75,-0.04,-0.2,0.77
10.060464143753052,1.0,-0.18,-0.18,1.03
10.064279079437256,0.86,0.03,0.17,0.87
10.076050043106079,0.53,0.0,0.17,0.55
10.079641103744507,0.47,0.09,-0.1,0.48
10.09263300895691,0.69,0.17,0.23,0.74
10.095371007919312,0.89,-0.07,0.29,0.93
10.117457151412964,0.52,0.28,0.56,0.81
10.118767976760864,-0.07,0.38,0.64,0.74
10.127840995788574,-0.22,0.37,0.55,0.69
10.129868984222412,0.02,0.18,0.15,0.23
10.146796941757202,0.41,0.55,0.19,0.71
10.150818109512329,0.8,0.84,0.3,1.19
10.159608125686646,1.09,0.56,0.06,1.22
10.163294076919556,1.17,1.11,0.07,1.61
10.176959991455078,1.82,1.52,-0.67,2.46
10.1804358959198,4.91,3.09,0.94,5.87
10.194362878799438,6.24,1.72,3.17,7.2
10.195665121078491,2.35,2.14,2.24,3.88
10.21471619606018,0.84,3.1,2.01,3.78
10.217777013778687,2.16,3.3,1.64,4.27
10.224465131759644,5.48,3.55,2.45,6.97
10.225611925125122,6.14,3.95,0.68,7.33
10.24435305595398,4.69,5.2,1.11,7.09
10.247719049453735,5.36,6.05,1.37,8.19
10.259401082992554,6.68,6.12,1.74,9.22
10.263200044631958,7.38,6.94,2.59,10.45
10.283233880996704,9.6,8.02,3.78,13.06
10.284433126449585,10.85,6.04,4.63,13.25
10.292200088500977,9.43,-1.48,3.37,10.12
10.293035984039307,2.33,1.12,0.01,2.58
10.31041693687439,-2.4,17.1,-4.4,17.81
10.3140709400177,3.12,10.88,-5.34,12.51
10.325976133346558,9.29,3.66,-4.67,11.02
10.328582048416138,12.09,2.84,-2.29,12.62
10.344964027404785,14.37,-1.01,-0.17,14.4
10.348769903182983,4.46,-5.5,-2.01,7.36
10.363824129104614,-5.08,2.34,-8.85,10.46
10.364716053009033,-4.21,4.5,-2.83,6.78
10.381309032440186,0.27,3.47,4.62,5.78
10.384806871414185,5.82,-0.85,4.44,7.36
10.391126871109009,8.7,-1.58,4.72,10.02
10.392432928085327,9.94,-1.5,2.44,10.34
10.410104990005493,10.28,-2.03,-0.58,10.49
10.413447141647339,9.64,-1.89,-1.52,9.94
10.427674055099487,8.2,-0.94,-0.37,8.26
10.431058168411255,6.76,-0.85,1.45,6.96
10.448012113571167,4.97,-0.46,2.71,5.67
10.448857069015503,3.74,-0.12,2.75,4.64
10.463191986083984,3.38,0.18,1.69,3.78
10.466711044311523,3.56,0.45,0.64,3.64
10.47788691520691,3.87,0.8,0.67,4.0
10.481818914413452,3.65,0.96,1.21,3.96
10.493102073669434,3.11,0.91,1.71,3.66
10.496664047241211,2.41,1.1,2.13,3.39
10.509670972824097,1.52,1.37,1.89,2.78
10.51374888420105,0.63,1.54,1.05,1.96
10.531607866287231,0.31,1.67,0.74,1.85
10.532357931137085,0.37,1.77,0.88,2.01
10.546633958816528,0.38,1.87,0.87,2.09
10.55028510093689,-0.09,2.25,0.6,2.33
10.559598207473755,-0.96,2.64,0.06,2.8
10.562337160110474,-1.56,2.71,-0.43,3.15
10.57856822013855,-1.7,2.61,-0.51,3.15
10.581969022750854,-1.82,2.67,-0.45,3.26
10.592956066131592,-2.31,2.96,-0.73,3.82
10.596399068832397,-3.14,3.23,-1.32,4.69
10.614983081817627,-4.0,3.36,-1.83,5.53
10.615822076797485,-4.61,3.5,-1.91,6.09
10.629432916641235,-5.21,3.86,-1.96,6.77
10.631852865219116,-6.04,4.24,-2.44,7.77
10.644520998001099,-6.82,4.26,-2.98,8.57
10.64798903465271,-7.12,4.17,-3.22,8.85
10.657202959060669,-6.67,3.19,-2.92,7.94
10.658507108688354,-8.47,0.44,-3.05,9.01
10.67671513557434,-10.02,1.65,-4.13,10.96
10.68059515953064,-10.9,0.51,-3.73,11.53
10.700289964675903,-12.39,-0.36,-4.22,13.09
10.701333045959473,-13.57,-0.89,-5.21,14.56
10.708943128585815,-13.67,-1.35,-5.73,14.88
10.710129976272583,-12.95,-1.72,-5.7,14.25
10.729567050933838,-11.78,-1.95,-5.37,13.09
10.732990980148315,-11.38,-1.7,-5.06,12.56
10.743579149246216,-11.12,-0.46,-5.15,12.26
10.74735403060913,2.94,17.6,-0.68,17.85
10.759555101394653,15.01,16.12,6.17,22.87
10.763384103775024,17.78,-1.02,2.62,18.0
10.780319929122925,20.89,-12.13,-6.61,25.04
10.781203985214233,-0.36,-14.7,-8.99,17.23
10.797619104385376,-18.53,-3.98,-4.72,19.53
10.801452875137329,-18.39,1.02,6.47,19.52
10.808042049407959,-19.39,12.04,4.2,23.2
10.809338092803955,-19.37,10.77,-5.39,22.8
10.827739953994751,-6.52,-0.81,1.41,6.71
10.83156418800354,1.36,0.2,6.24,6.38
10.842948198318481,0.33,-1.06,-0.07,1.11
10.846687078475952,-1.42,0.14,-3.56,3.83
10.865031957626343,-1.72,0.46,-3.84,4.23
10.865864992141724,-1.47,0.47,-2.98,3.35
10.880115032196045,-2.68,1.7,-3.81,4.95
10.882063150405884,-5.82,1.1,-3.85,7.06
10.893959999084473,-2.75,0.48,-3.11,4.17
10.897518873214722,-0.88,0.19,0.48,1.02
10.907447099685669,-1.04,-0.04,1.81,2.08
10.908770084381104,-1.81,0.46,1.1,2.16
10.926403045654297,-2.22,0.44,0.17,2.26
10.930063962936401,-1.55,0.16,-0.22,1.57
10.944709062576294,-0.75,0.16,0.31,0.82
10.945647954940796,-0.27,-0.01,0.2,0.33
10.962537050247192,-0.4,0.14,0.36,0.55
10.966103076934814,-0.26,0.02,0.1,0.27
10.97697401046753,-0.01,0.06,0.09,0.1
10.979445219039917,-0.18,0.1,-0.24,0.31
10.9947350025177,-0.24,0.04,-0.93,0.96
10.996982097625732,-0.23,0.19,-0.9,0.94
11.011028051376343,-0.11,-0.08,-0.69,0.7
11.013918161392212,0.05,0.07,-0.3,0.31
11.031517028808594,0.14,-0.1,-0.05,0.17
11.032831907272339,0.06,0.02,-0.04,0.07
11.046921968460083,-0.04,0.06,-0.14,0.15
11.050672054290771,-0.04,0.04,-0.11,0.12
11.059864044189453,0.02,0.06,-0.21,0.21
11.062961101531982,0.17,0.07,-0.15,0.23
11.076395988464355,0.36,-0.08,-0.44,0.57
11.080087900161743,0.45,-0.11,-0.55,0.71
11.0904381275177,0.62,-0.16,-0.21,0.67
11.091820001602173,0.76,-0.37,-0.45,0.95
11.11727499961853,0.7,-0.05,-0.09,0.7
11.118580102920532,0.65,0.07,0.31,0.72
11.125634908676147,0.67,0.07,0.34,0.75
11.127443075180054,0.56,0.33,0.64,0.91
11.144386053085327,0.35,0.5,0.99,1.16
11.14838194847107,0.2,0.74,0.92,1.19
11.160392999649048,0.57,0.82,0.41,1.07
11.164154052734375,1.03,1.01,0.21,1.45
11.17662501335144,1.4,0.84,0.38,1.67
11.180702924728394,2.02,0.97,0.68,2.34
11.197911024093628,2.99,1.77,0.57,3.52
11.199260950088501,5.29,2.13,1.37,5.86
11.209022045135498,5.09,1.43,1.9,5.61
11.210291147232056,2.14,2.26,0.89,3.23
11.227505922317505,1.5,2.35,1.27,3.06
11.230808019638062,2.16,2.43,1.51,3.58
11.2435781955719,4.03,2.72,1.97,5.24
11.246886014938354,3.9,2.93,1.55,5.11
11.261132955551147,3.09,3.18,2.12,4.91
11.264656066894531,3.58,4.25,1.97,5.89
11.277971982955933,4.79,5.3,2.03,7.42
11.27937912940979,6.77,5.98,3.14,9.56
11.29668116569519,8.83,5.49,4.99,11.53
11.300168991088867,9.31,6.01,6.65,12.92
11.307944059371948,8.45,1.56,6.81,10.96
11.309261083602905,3.59,-1.92,3.77,5.54
11.326543092727661,0.37,12.47,1.69,12.58
11.33008599281311,2.34,17.34,3.52,17.84
11.344288110733032,5.4,8.9,-1.81,10.56
11.347452878952026,8.28,7.81,-8.94,14.47
11.360984086990356,12.62,7.96,-10.31,18.13
11.361898183822632,15.91,4.55,-7.98,18.37
11.377799987792969,10.82,-0.8,-2.48,11.12
11.381444215774536,-3.67,4.81,-7.42,9.57
11.391130208969116,-7.33,4.48,-4.42,9.66
11.392462968826294,-5.07,3.79,9.39,11.32
11.410037994384766,-0.32,2.06,12.95,13.11
11.41397213935852,5.45,-0.61,11.96,13.15
11.426289081573486,8.88,-0.68,7.53,11.66
11.430585145950317,10.62,-1.08,-0.05,10.67
11.447416067123413,11.63,-2.23,-6.88,13.69
11.44827914237976,11.85,-2.31,-7.49,14.2
11.463775873184204,11.76,-1.73,-4.42,12.68
11.467122077941895,9.61,-0.77,-0.18,9.64
11.476999044418335,6.58,-1.05,3.81,7.67
11.481008052825928,3.42,-0.77,5.49,6.51
11.493185997009277,1.08,-0.45,3.51,3.69
11.495625019073486,0.72,-0.08,0.14,0.73
11.509819030761719,1.17,0.49,-1.71,2.12
11.513540029525757,1.65,0.95,-1.91,2.69
11.526975870132446,1.71,0.96,-0.65,2.06
11.528309106826782,1.37,1.07,0.75,1.89
11.547463178634644,0.88,1.24,1.62,2.22
11.549993991851807,0.16,1.77,1.19,2.13
11.557851076126099,-0.38,2.17,-0.15,2.2
11.559242010116577,-0.64,2.4,-0.94,2.65
11.57683801651001,-1.26,2.71,-0.77,3.08
11.580299139022827,-2.26,2.75,-0.65,3.61
11.594260931015015,-3.25,2.68,-0.87,4.3
11.597788095474243,-4.14,2.79,-1.45,5.19
11.611110925674438,-4.76,2.94,-1.97,5.93
11.61250901222229,-5.15,3.02,-1.99,6.29
11.63065218925476,-5.57,3.14,-1.84,6.65
11.634637117385864,-6.21,3.37,-1.97,7.33
11.64365005493164,-6.82,3.48,-2.2,7.96
11.646919965744019,-7.26,3.61,-2.29,8.42
11.657063007354736,-7.63,3.77,-2.4,8.84
11.658383131027222,-7.91,3.65,-2.76,9.13
11.676830053329468,-8.13,3.13,-3.4,9.35
11.6804039478302,-8.36,2.04,-3.94,9.46
11.694310903549194,-8.95,0.71,-4.18,9.9
11.69526219367981,-10.91,-0.52,-3.89,11.59
11.715326070785522,-14.23,-1.41,-4.81,15.08
11.720247983932495,-16.76,-2.43,-5.2,17.71
11.726258993148804,-16.93,-2.54,-5.03,17.84
11.728535890579224,-14.53,-2.37,-4.83,15.49
11.744559049606323,-12.0,-1.99,-4.77,13.06
11.74791407585144,-10.72,-1.59,-4.97,11.92
11.759535074234009,-6.01,7.63,-3.95,10.48
11.763468980789185,8.89,18.58,2.35,20.73
11.777796030044556,10.91,6.35,9.09,15.55
11.779210090637207,13.17,-3.87,-0.89,13.75
11.797039985656738,16.27,-12.79,-7.51,22.01
11.800871133804321,1.46,-12.5,-12.62,17.82
11.810101985931396,-13.91,-4.11,-9.29,17.22
11.813390016555786,-15.27,2.02,3.6,15.81
11.826428174972534,-17.45,12.58,7.53,22.79
11.828787088394165,-18.28,9.61,-0.59,20.66
11.84314513206482,-5.67,-0.62,-0.01,5.7
11.846620082855225,1.92,-0.14,1.36,2.35
11.86028003692627,1.57,-1.27,-2.92,3.55
11.861476182937622,-3.25,2.3,-6.42,7.55
11.880884885787964,-8.51,1.51,-6.54,10.83
11.88422417640686,-4.68,1.0,-3.07,5.68
11.891386985778809,-0.59,0.21,0.44,0.76
11.892685174942017,0.2,-0.41,1.53,1.59
11.909555196762085,-1.14,0.22,0.39,1.22
11.913271188735962,-2.28,0.37,-1.42,2.71
11.927024126052856,-2.23,0.52,-1.26,2.61
11.93063998222351,-1.16,0.23,-0.19,1.19
11.944387197494507,-0.3,-0.05,0.67,0.73
11.945690870285034,-0.05,-0.05,0.89,0.89
11.961238145828247,-0.32,0.0,0.42,0.52
11.964936017990112,-0.62,0.1,-0.13,0.64
11.97901201248169,-0.65,0.09,-0.09,0.66
11.98211407661438,-0.37,0.16,0.07,0.4
11.990453004837036,0.39,-0.28,0.06,0.48
11.991716146469116,0.61,0.09,-0.04,0.61
12.010034084320068,0.8,-0.38,-0.81,1.2
12.014729022979736,0.72,0.0,-0.65,0.97
12.027561902999878,0.41,-0.03,-0.67,0.78
12.028846979141235,0.46,-0.3,-0.61,0.82
12.045263051986694,0.51,0.26,0.04,0.57
12.049252986907959,0.54,-0.28,-0.03,0.6
12.059386968612671,0.2,0.24,0.28,0.41
12.060700178146362,0.14,0.08,0.31,0.34
12.076649904251099,-0.37,0.28,0.69,0.83
12.080879926681519,-0.52,0.02,0.33,0.61
12.093086957931519,-0.15,0.11,0.27,0.32
12.096800088882446,0.16,0.04,-0.23,0.28
12.118189096450806,0.33,0.05,-0.46,0.56
12.1198410987854,0.55,0.09,-0.13,0.57
12.125632047653198,0.64,-0.13,-0.32,0.72
12.126420021057129,0.58,0.01,-0.23,0.62
12.1442129611969,0.46,0.01,-0.14,0.48
12.147512197494507,0.41,-0.14,-0.35,0.55
12.16109299659729,0.65,0.08,0.24,0.69
12.164977073669434,0.69,0.17,0.47,0.85
12.176255941390991,0.76,0.15,0.59,0.97
12.180386066436768,0.97,0.29,0.66,1.2
12.197735071182251,1.33,0.64,0.67,1.62
12.19869589805603,1.29,0.85,0.42,1.6
12.212760210037231,1.31,1.13,-0.69,1.86
12.214794874191284,2.74,2.37,0.13,3.62
12.227889060974121,5.48,2.48,1.37,6.16
12.230907201766968,5.5,1.24,2.37,6.11
12.2429039478302,2.11,2.51,1.85,3.76
12.246278047561646,1.36,2.67,1.94,3.56
12.256928205490112,1.77,2.64,1.31,3.43
12.258219003677368,4.04,2.83,2.07,5.34
12.280517101287842,5.11,3.06,1.03,6.04
12.281688928604126,3.22,3.68,0.89,4.97
12.292432069778442,3.52,4.49,1.03,5.79
12.293560028076172,4.89,4.9,1.17,7.02
12.310445070266724,6.37,5.79,2.26,8.89
12.313926935195923,9.34,5.96,3.37,11.58
12.326776027679443,11.13,6.8,4.5,13.79
12.330658197402954,10.39,2.91,4.06,11.52
12.343351125717163,7.22,-2.74,1.35,7.83
12.347042083740234,-0.76,8.42,-1.39,8.56
12.36017107963562,-2.07,17.08,-4.55,17.79
12.361634969711304,4.3,7.89,-6.37,11.01
12.375375986099243,8.16,4.45,-5.32,10.7
12.376798868179321,10.76,4.53,-3.86,12.29
12.393879175186157,12.99,0.75,-0.12,13.01
12.397396087646484,4.32,-3.6,2.03,5.97
12.40941309928894,-6.22,1.31,-6.74,9.26
12.41328501701355,-6.64,4.52,-4.05,8.99
12.425963163375854,-1.48,4.79,4.46,6.71
12.429641962051392,5.04,-0.13,4.45,6.72
12.4443039894104,9.06,-1.24,4.1,10.02
12.445755004882812,10.88,-1.49,1.54,11.08
12.463925123214722,11.82,-2.51,-1.68,12.19
12.467375040054321,11.59,-2.02,-1.73,11.89
12.477281093597412,10.11,-0.82,-0.4,10.15
12.481016874313354,9.93,-1.01,-0.42,9.99
12.493963956832886,7.66,-0.98,0.94,7.77
12.497605085372925,4.99,-0.86,2.02,5.45
12.509339094161987,3.25,-0.88,2.22,4.03
12.513107061386108,2.78,-0.72,1.76,3.36
12.530026197433472,3.08,-0.45,0.93,3.24
12.530872106552124,3.51,-0.24,0.54,3.55
12.54553508758545,3.57,0.01,0.71,3.63
12.547749996185303,3.08,0.38,1.2,3.32
12.561214208602905,2.18,0.68,1.61,2.79
12.564314126968384,1.26,0.98,1.34,2.08
12.575937032699585,0.66,1.23,0.91,1.66
12.580186128616333,0.49,1.54,0.5,1.69
12.597625017166138,0.75,1.9,0.32,2.06
12.602025985717773,0.68,2.26,-0.13,2.36
12.60979700088501,-0.11,2.61,-0.61,2.68
12.610586881637573,-1.12,2.74,-1.1,3.15
12.63077712059021,-1.83,2.71,-1.49,3.59
12.63445496559143,-2.39,2.8,-1.7,4.05
12.643599033355713,-3.07,2.88,-2.06,4.68
12.647180080413818,-3.65,3.05,-2.32,5.29
12.65929102897644,-4.13,3.27,-2.25,5.72
12.661787033081055,-4.43,3.39,-2.25,6.01
12.678092002868652,-4.55,3.62,-2.21,6.22
12.681989908218384,-4.86,4.06,-2.44,6.78
12.694415092468262,-5.69,4.6,-2.98,7.9
12.69576096534729,-6.78,4.64,-3.56,8.95
12.711519002914429,-7.64,4.43,-3.77,9.6
12.713754892349243,-8.21,3.99,-3.58,9.8
12.729066133499146,-8.16,2.49,-3.14,9.09
12.733193159103394,-8.68,1.03,-2.24,9.02
12.742980003356934,-10.22,0.38,-3.17,10.7
12.746443033218384,-11.98,-0.74,-3.76,12.57
12.75973105430603,-13.14,-1.63,-4.18,13.88
12.763154983520508,-12.82,-2.1,-4.44,13.72
12.782272100448608,-11.62,-1.77,-4.49,12.58
12.78313398361206,-10.47,-1.71,-4.9,11.68
12.796054124832153,-9.88,-2.12,-4.8,11.18
12.798909902572632,-10.4,-2.14,-4.36,11.47
12.810458898544312,-8.09,4.39,-3.95,10.01
12.813957929611206,10.56,23.11,2.29,25.51
12.82435917854309,13.95,8.01,9.66,18.76
12.825647115707397,15.32,-7.99,2.63,17.47
12.843519926071167,10.71,-17.95,-1.52,20.95
12.8473060131073,-8.36,-8.22,-7.68,14.01
12.860787153244019,-17.41,-1.62,-2.31,17.63
12.862210035324097,-18.89,7.69,3.86,20.75
12.8801748752594,-21.64,16.03,-3.66,27.17
12.883762121200562,-10.24,1.36,-0.64,10.34
12.893218040466309,1.76,-0.7,4.99,5.33
12.89673900604248,2.22,-1.02,-0.28,2.45
12.909437894821167,0.04,-0.47,-3.84,3.86
12.912817001342773,-0.76,0.19,-3.13,3.22
12.927662134170532,-1.27,0.39,-2.28,2.63
12.930546045303345,-4.15,2.2,-3.73,5.99
12.947460889816284,-5.07,0.19,-4.08,6.51
12.948307037353516,-1.05,0.53,-2.2,2.49
12.964452028274536,-0.51,-0.13,-0.3,0.6
12.968030214309692,-1.95,0.5,0.38,2.04
12.976837873458862,-4.55,1.04,0.51,4.69
12.980056047439575,-3.91,0.4,-0.66,3.98
12.993864059448242,-2.05,0.4,0.33,2.11
12.997083902359009,-0.6,0.2,0.54,0.83
13.010557889938354,0.14,0.03,0.44,0.46
13.013956069946289,0.1,-0.06,0.68,0.68
13.027397871017456,-0.29,-0.03,0.5,0.57
13.028710126876831,-0.61,0.22,0.02,0.64
13.047887086868286,-0.38,-0.02,-0.26,0.46
13.050864934921265,-0.17,0.17,-0.18,0.3
13.059890985488892,0.11,-0.11,-0.27,0.31
13.063194990158081,0.22,0.07,-0.11,0.25
13.077810049057007,0.3,-0.06,0.06,0.31
13.080924987792969,0.32,0.06,-0.18,0.37
13.092608213424683,0.27,-0.05,-0.66,0.71
13.096201181411743,0.42,-0.07,-0.56,0.7
13.11485505104065,0.64,-0.06,-0.12,0.65
13.115714073181152,0.68,-0.08,0.27,0.73
13.129301071166992,0.4,-0.11,-0.04,0.41
13.13171100616455,0.25,0.02,-0.17,0.3
13.14411997795105,0.37,0.1,0.01,0.38
13.147595167160034,0.49,-0.07,-0.28,0.56
13.15710997581482,0.51,-0.1,-0.23,0.56
13.158196210861206,0.53,0.0,-0.06,0.53
13.176374197006226,0.56,-0.09,-0.17,0.59
13.180137872695923,0.42,0.16,0.17,0.48
13.196748971939087,0.28,0.04,0.26,0.38
13.197531938552856,-0.05,0.18,0.37,0.41
13.212900876998901,0.1,0.15,0.39,0.42
13.216217994689941,0.78,0.16,0.48,0.92
13.226484060287476,1.14,0.48,0.71,1.42
13.228977918624878,1.03,0.41,0.79,1.36
13.242655038833618,0.99,0.81,0.35,1.32
13.245814085006714,2.39,1.67,-0.43,2.94
13.260803937911987,4.96,2.47,0.03,5.54
13.26333212852478,6.53,2.47,2.07,7.28
13.282175064086914,4.35,2.1,2.51,5.44
13.283405065536499,1.6,3.02,2.05,3.98
13.2915620803833,1.13,3.71,1.84,4.29
13.292296171188354,4.28,4.34,2.84,6.72
13.312357187271118,7.14,4.66,1.32,8.62
13.316099882125854,5.61,6.46,0.51,8.57
13.32596206665039,4.67,7.49,0.72,8.85
13.32973313331604,6.35,8.01,1.26,10.29
13.343316078186035,10.21,7.36,2.67,12.86
13.347039937973022,12.52,6.83,4.26,14.88
13.363221883773804,11.72,6.03,4.34,13.87
13.36408805847168,10.06,2.15,2.93,10.69
13.381622076034546,4.33,4.38,-0.19,6.16
13.385447025299072,-1.77,17.17,-7.09,18.66
13.393748998641968,3.01,11.41,-8.88,14.76
13.397449016571045,9.71,4.34,-5.6,12.01
13.410489082336426,12.98,2.34,-0.17,13.19
13.414294958114624,7.23,-3.19,-1.07,7.97
13.425884008407593,-2.81,1.05,-7.35,7.93
13.429724931716919,-3.91,2.42,-2.53,5.24
13.448955059051514,1.51,0.51,4.07,4.37
13.450335025787354,6.53,-1.88,5.98,9.05
13.462230920791626,9.04,-2.71,4.16,10.31
13.465296983718872,9.92,-3.31,0.54,10.47
13.476769208908081,9.88,-3.26,-1.6,10.52
13.480400085449219,9.18,-2.46,-1.09,9.56
13.49382209777832,7.72,-2.25,0.81,8.08
13.49737811088562,5.55,-2.09,2.82,6.56
13.5106840133667,3.47,-1.89,3.4,5.21
13.514327049255371,2.52,-1.6,2.72,4.03
13.527566194534302,2.54,-1.22,1.48,3.18
13.52902102470398,3.04,-0.82,0.66,3.21
13.545457124710083,3.42,-0.42,0.82,3.54
13.54892897605896,3.4,-0.26,1.4,3.68
13.561614990234375,3.17,-0.19,2.0,3.75
13.5660080909729,2.7,0.16,2.23,3.5
13.575547933578491,1.91,0.54,1.52,2.5
13.578617095947266,1.44,0.86,1.19,2.05
13.593200922012329,1.14,1.24,1.07,1.99
13.596978902816772,0.52,1.64,0.83,1.91
13.614322900772095,-0.08,2.1,0.73,2.22
13.615177869796753,-0.59,2.48,0.46,2.59
13.630313158035278,-0.97,2.82,0.2,2.98
13.633936166763306,-1.43,3.14,0.02,3.45
13.642028093338013,-1.91,3.35,-0.17,3.85
13.643351078033447,-2.25,3.32,-0.2,4.01
13.659934043884277,-2.49,3.34,-0.18,4.16
13.663601160049438,-2.77,3.42,-0.19,4.4
13.67589807510376,-3.2,3.58,-0.36,4.81
13.678222894668579,-3.79,3.82,-0.65,5.42
13.700473070144653,-4.44,3.82,-0.98,5.93
13.701649904251099,-5.03,3.69,-1.17,6.34
13.711402177810669,-5.59,3.65,-1.37,6.81
13.714940071105957,-6.22,3.73,-1.67,7.44
13.727028131484985,-7.15,3.85,-2.01,8.36
13.730684995651245,-8.02,3.53,-2.64,9.15
13.743757009506226,-8.21,2.52,-2.88,9.05
13.74751591682434,-8.3,1.15,-2.42,8.72
13.759300947189331,-9.43,0.31,-2.93,9.87
13.763175010681152,-11.22,-0.51,-3.77,11.84
13.78062105178833,-13.2,-1.22,-3.9,13.81
13.781454086303711,-14.53,-1.3,-4.09,15.15
13.798094987869263,-14.62,-1.25,-3.92,15.18
13.80131220817566,-14.3,-0.87,-3.95,14.86
13.810119867324829,-13.46,-0.15,-4.51,14.19
13.813342094421387,-1.38,15.48,-2.95,15.81
13.827129125595093,11.65,11.31,4.84,16.94
13.83008599281311,13.15,-6.81,-2.67,15.04
13.843858003616333,11.92,-9.79,-12.37,19.77
13.847452878952026,-3.17,-4.73,-13.71,14.84
13.860911130905151,-16.07,-2.73,-1.13,16.33
13.86181092262268,-16.28,4.87,8.52,19.0
13.878149032592773,-16.67,11.96,3.7,20.84
13.880712985992432,-11.75,2.39,-0.43,11.99
13.895809888839722,-3.32,-0.05,3.5,4.82
13.899293184280396,-0.98,0.46,3.47,3.63
13.90919303894043,-0.43,-0.64,-0.57,0.95
13.912429094314575,-0.2,0.01,-2.56,2.56
13.925480127334595,-1.33,0.53,-2.55,2.92
13.928807973861694,-2.95,0.99,-2.1,3.75
13.949410200119019,-3.38,1.33,-2.28,4.28
13.950392961502075,-4.67,1.82,-3.84,6.31
13.961385011672974,-4.21,0.33,-3.24,5.32
13.964816093444824,-0.85,0.54,-1.73,2.0
13.974593877792358,0.3,-0.15,-0.4,0.52
13.975908994674683,0.35,-0.24,-0.59,0.72
13.994670152664185,0.04,0.0,-0.62,0.62
13.998398065567017,-0.36,0.07,-0.67,0.76
14.010285139083862,-0.56,0.15,-0.09,0.58
14.015060186386108,-0.66,0.03,0.33,0.73
14.031290054321289,-0.65,0.19,0.5,0.84
14.032618999481201,-0.47,0.05,0.03,0.47
14.047271966934204,-0.26,-0.04,0.02,0.26
14.051035165786743,-0.21,0.28,0.12,0.37
14.060375928878784,0.1,-0.2,-0.04,0.22
14.064061880111694,0.3,0.12,-0.14,0.35
14.077172994613647,0.46,-0.22,-0.54,0.74
14.080852031707764,0.34,0.01,-0.53,0.62
14.093648195266724,0.2,-0.1,-0.63,0.66
14.09730315208435,0.27,-0.02,-0.61,0.66
14.109410047531128,0.23,-0.04,-0.39,0.45
14.110681056976318,0.35,-0.18,-0.33,0.51
14.128666162490845,0.08,0.2,0.18,0.28
14.132277011871338,-0.31,-0.01,0.1,0.32
14.143907070159912,-0.4,0.26,0.39,0.61
14.147623062133789,-0.31,0.0,0.23,0.38
14.159390211105347,-0.27,0.09,0.18,0.33
14.163633108139038,-0.16,0.07,0.21,0.27
14.176133871078491,0.17,-0.2,-0.09,0.27
14.179342985153198,0.35,0.05,0.09,0.36
14.197118043899536,0.74,-0.38,-0.15,0.84
14.197888135910034,1.16,-0.15,0.37,1.22
14.214532136917114,1.54,-0.62,0.26,1.68
14.217742204666138,1.99,-0.47,0.55,2.11
14.226510047912598,2.36,-0.51,0.65,2.5
14.229789972305298,2.91,-0.71,0.11,2.99
14.244373083114624,3.28,-0.84,-0.43,3.41
14.247376203536987,2.6,-0.41,-0.41,2.66
14.259320974349976,1.47,-0.08,-0.13,1.47
14.262757062911987,0.3,0.61,0.52,0.85
14.2832670211792,-0.3,0.74,1.11,1.36
14.284271955490112,-0.42,0.97,1.37,1.73
14.291637182235718,-0.91,1.65,1.96,2.71
14.292962074279785,-0.1,2.14,1.83,2.81
14.311000108718872,1.47,2.03,0.92,2.66
14.314598083496094,3.12,2.0,0.71,3.77
14.327437162399292,4.08,2.83,0.69,5.01
14.331065893173218,6.15,3.04,1.25,6.97
14.343549013137817,5.1,2.01,1.39,5.65
14.347456216812134,1.63,2.93,1.65,3.73
14.363579988479614,1.83,3.07,2.62,4.43
14.364891052246094,3.92,4.43,2.73,6.51
14.376457929611206,5.57,5.83,2.91,8.57
14.377748012542725,6.88,6.51,4.18,10.35
14.39376187324524,7.47,7.32,5.64,11.88
14.397667169570923,8.35,6.1,6.06,11.98
14.409318208694458,9.49,5.22,6.13,12.44
14.412544965744019,7.86,1.73,4.4,9.17
14.427518129348755,4.04,5.0,1.57,6.61
14.43106198310852,2.01,11.29,2.13,11.66
14.443263053894043,0.57,9.9,0.9,9.95
14.444707155227661,4.76,10.16,-4.86,12.22
14.46114706993103,10.35,8.7,-6.09,14.82
14.464268922805786,14.01,4.42,-3.71,15.15
14.478326082229614,4.77,2.24,-0.93,5.35
14.48205018043518,-7.07,8.39,-8.84,14.08
14.49269413948059,-4.21,5.91,-2.97,7.84
14.496630907058716,1.31,2.63,7.34,7.9
14.509662866592407,6.83,0.59,7.15,9.9
14.513113021850586,11.17,-0.36,7.88,13.67
14.527751207351685,13.04,-0.62,5.57,14.19
14.52882695198059,12.97,-1.66,-0.65,13.09
14.547919034957886,12.2,-3.08,-4.59,13.39
14.551668882369995,11.77,-1.86,-3.8,12.5
14.559702157974243,10.65,-1.17,-1.29,10.79
14.562175035476685,8.26,-1.46,1.26,8.48
14.578052043914795,5.42,-1.54,2.09,6.0
14.581938982009888,3.26,-1.36,1.07,3.69
14.59281301498413,2.47,-1.34,-0.66,2.88
14.596673011779785,2.84,-1.21,-1.74,3.54
14.61983609199524,3.26,-1.01,-1.71,3.81
14.62077808380127,3.31,-0.86,-1.28,3.65
14.624520063400269,2.92,-0.63,-1.07,3.17
14.625874996185303,2.37,-0.35,-1.05,2.61
14.644564867019653,1.8,0.08,-1.43,2.3
14.648636102676392,1.23,0.61,-2.06,2.47
14.659606218338013,0.72,1.1,-2.35,2.69
14.667488098144531,0.19,1.64,-2.38,2.89
14.677829027175903,-0.72,2.34,-2.88,3.78
14.688067197799683,-1.88,2.91,-3.82,5.15
14.707805871963501,-2.93,3.15,-4.48,6.21
14.708636045455933,-4.04,3.48,-4.29,6.84
14.716942071914673,-5.25,3.92,-4.26,7.81
14.727833986282349,-6.52,4.62,-4.33,9.08
14.738126039505005,-7.97,5.54,-4.52,10.7
14.746723890304565,-9.53,6.22,-4.89,12.38
14.759071111679077,-10.91,6.63,-5.31,13.82
14.768245935440063,-11.62,6.65,-5.72,14.55
14.778486967086792,-11.19,5.52,-6.19,13.92
14.78867220878601,-10.34,3.27,-6.42,12.6
14.810302972793579,-10.55,0.51,-6.36,12.32
14.811891078948975,-12.67,-1.48,-5.79,14.0
14.81701111793518,-15.61,-2.54,-5.3,16.67
14.828312158584595,-17.01,-3.36,-4.63,17.94
14.839032888412476,-16.24,-3.01,-3.91,16.97
14.848798990249634,-14.24,-1.77,-5.0,15.19
14.859164953231812,-3.25,11.34,-7.92,14.2
14.869014978408813,8.27,8.6,3.83,12.53
14.879260063171387,8.46,-6.49,4.56,11.59
14.88942003250122,3.15,-4.1,-5.8,7.76
14.912521123886108,-2.29,-1.99,-7.91,8.47
14.915634870529175,-8.39,-3.26,-1.56,9.13
14.91744589805603,-11.98,-0.77,7.68,14.25
14.927695035934448,-12.58,5.95,4.98,14.78
14.939722061157227,-14.84,8.76,-3.4,17.56
14.949339151382446,-8.16,0.99,-3.66,8.99
14.959419012069702,-0.12,-0.09,0.77,0.78
14.969861030578613,0.98,-0.21,-1.19,1.55
14.979737043380737,-6.1,3.01,-7.49,10.11
14.990122079849243,-9.44,1.29,-7.8,12.31
15.012954950332642,-3.87,1.31,-2.68,4.88
15.01651406288147,-0.69,0.0,1.2,1.38
15.018110036849976,-0.48,0.01,2.0,2.05
15.028377056121826,-1.86,0.49,0.39,1.96
15.040441989898682,-2.83,0.62,-1.4,3.21
15.049838066101074,-2.25,0.52,-1.19,2.59
15.059920072555542,-0.88,0.3,0.15,0.94
15.07040810585022,0.12,-0.1,0.75,0.76
15.080450057983398,0.17,0.01,0.63,0.65
15.090544939041138,-0.42,0.0,-0.01,0.42
15.114265203475952,-0.73,0.14,-0.31,0.8
15.117725133895874,-0.5,0.11,-0.16,0.53
15.120025873184204,-0.02,-0.17,0.09,0.19
15.128918886184692,0.18,0.11,0.24,0.31
15.140455961227417,0.24,-0.27,-0.21,0.41
15.15044617652893,0.35,-0.12,-0.59,0.69
15.160824060440063,0.85,-0.22,-0.81,1.19
15.170953035354614,1.22,-0.37,-0.7,1.45
15.18093991279602,1.23,-0.22,-0.51,1.34
15.191139936447144,0.85,-0.21,-0.21,0.9
15.21372103691101,0.51,-0.05,-0.08,0.51
15.217003107070923,0.86,-0.31,-0.07,0.91
15.219383955001831,1.13,-0.25,0.01,1.15
15.22944188117981,0.67,-0.01,-0.19,0.69
15.24141001701355,-0.17,0.26,-0.19,0.36
15.251002073287964,-0.1,0.07,0.07,0.14
15.261120080947876,0.5,-0.12,0.14,0.53
15.27184510231018,0.55,0.02,0.22,0.59
15.2812979221344,0.29,0.3,0.07,0.42
15.292281866073608,0.06,0.13,0.29,0.32
15.31510305404663,-0.01,0.31,0.74,0.8
15.318383932113647,-0.13,0.24,0.81,0.85
15.320727109909058,0.07,0.2,0.8,0.82
15.329955101013184,0.34,0.18,0.49,0.62
15.342066049575806,1.13,0.1,0.24,1.15
15.351630926132202,1.66,0.12,0.55,1.75
15.36197018623352,1.68,0.38,0.88,1.93
15.371936082839966,1.53,0.63,0.81,1.84
15.3820641040802,2.07,1.55,0.66,2.66
15.391823053359985,3.15,1.43,0.24,3.46
15.414108991622925,5.04,3.33,-0.22,6.04
15.4150869846344,6.9,2.49,1.78,7.54
15.420605897903442,4.88,1.9,1.68,5.49
15.43218207359314,2.21,3.15,1.56,4.15
15.442525148391724,2.15,3.39,1.37,4.24
15.452143907546997,4.69,4.09,1.98,6.53
15.46262502670288,7.46,5.35,1.22,9.26
15.472778081893921,6.24,6.45,0.12,8.97
15.482712984085083,5.78,6.43,1.17,8.72
15.492624998092651,7.02,6.85,2.47,10.11
15.515400171279907,9.9,6.56,4.2,12.59
15.517410039901733,11.66,7.37,6.19,15.11
15.522727012634277,11.39,4.07,5.83,13.42
15.53251600265503,7.24,-1.05,2.49,7.72
15.543078184127808,1.37,10.55,-3.75,11.28
15.552727937698364,3.25,15.38,-5.64,16.7
15.562885999679565,8.38,7.72,-5.44,12.62
15.572755098342896,10.98,3.82,-4.92,12.62
15.583371877670288,13.91,1.35,-2.8,14.25
15.593249082565308,15.34,-2.78,1.24,15.63
15.616565942764282,4.18,-4.69,-0.21,6.28
15.619509935379028,-8.56,0.27,-8.55,12.1
15.62149691581726,-11.87,2.82,-0.58,12.21
15.633175134658813,-8.21,6.29,8.26,13.23
15.64383602142334,1.2,-0.51,9.34,9.43
15.653264999389648,7.91,-2.55,9.63,12.72
15.663480997085571,9.86,-1.41,4.6,10.97
15.673604011535645,10.31,-0.97,-1.16,10.42
15.683587074279785,10.37,-1.39,-3.68,11.09
15.693918943405151,9.3,0.13,-3.01,9.77
15.717084169387817,7.26,0.93,-1.44,7.45
15.720625162124634,5.35,0.33,1.11,5.47
15.721816062927246,4.05,0.08,3.52,5.36
15.734019994735718,3.31,0.1,4.31,5.43
15.744426965713501,2.93,0.3,3.09,4.26
15.753525972366333,2.74,0.63,1.11,3.02
15.7638680934906,2.57,0.98,-0.11,2.75
15.774379968643188,2.1,1.26,0.06,2.44
15.784252882003784,1.42,1.22,0.99,2.11
15.794435024261475,0.73,1.04,1.93,2.31
15.817301988601685,0.34,0.84,2.28,2.45
15.819159984588623,0.41,0.93,2.09,2.32
15.82259488105774,0.71,1.11,1.51,2.0
15.834419012069702,1.15,1.1,0.77,1.76
15.844681978225708,1.33,1.47,1.02,2.22
15.854351997375488,1.58,1.62,1.46,2.69
15.8645179271698,1.11,2.04,1.53,2.78
15.874824047088623,-0.06,2.69,1.04,2.88
15.884818077087402,-0.89,3.01,0.29,3.15
15.894744157791138,-1.31,3.29,-0.39,3.56
15.917400121688843,-1.57,3.77,-0.82,4.16
15.918917894363403,-2.12,4.49,-1.0,5.06
15.923460006713867,-3.84,5.42,-1.3,6.76
15.935127019882202,-6.23,5.44,-2.55,8.65
15.944969892501831,-8.17,4.84,-3.31,10.05
15.955221891403198,-9.47,4.44,-3.35,10.98
15.96486210823059,-10.44,4.23,-3.76,11.87
15.97602915763855,-11.92,4.43,-4.96,13.64
15.985321998596191,-13.95,4.06,-6.91,16.08
15.995751142501831,-15.87,2.12,-8.81,18.27
16.018961191177368,-17.44,-1.04,-8.9,19.6
16.022759199142456,-19.84,-3.78,-7.93,21.69
16.024933099746704,-20.79,-5.27,-6.6,22.44
16.030757188796997,-19.01,-6.11,-5.07,20.6
16.04311490058899,-16.84,-5.48,-5.81,18.63
16.05119299888611,-14.7,-4.71,-7.92,17.34
16.06280493736267,-12.63,-4.04,-8.81,15.92
16.07331395149231,-2.23,11.9,-5.93,13.48
16.08260202407837,15.0,22.91,4.98,27.83
16.09349799156189,15.2,7.22,10.62,19.89
16.11353611946106,22.24,-5.09,2.62,22.96
16.11443591117859,16.16,-22.84,-2.87,28.12
16.121082067489624,-6.04,-12.25,-5.0,14.54
16.13323712348938,-15.07,0.6,-3.92,15.58
16.143327951431274,-18.16,8.49,2.17,20.16
16.15313410758972,-22.13,14.71,-2.4,26.68
16.1632559299469,-9.27,1.66,-1.46,9.52
16.173799991607666,2.49,-0.53,3.13,4.03
16.183335065841675,-3.05,1.64,-5.98,6.91
16.193765878677368,-5.82,0.0,-9.83,11.42
16.21721601486206,-3.44,1.84,-4.22,5.74
16.22070813179016,-1.75,-0.05,-1.7,2.44
16.22280192375183,-1.73,0.28,1.29,2.17
16.233767986297607,-2.7,0.6,1.27,3.04
16.243900060653687,-2.96,0.6,-0.55,3.06
16.25368618965149,-2.03,0.46,-0.97,2.29
16.26348900794983,-0.48,0.12,-0.52,0.71
16.27461314201355,0.45,-0.17,0.42,0.63
16.28380513191223,0.22,-0.04,0.88,0.9
16.294403076171875,-0.4,-0.09,0.46,0.61
16.316953897476196,-0.68,0.01,0.08,0.68
16.319731950759888,-0.64,0.22,0.08,0.68
16.322466135025024,-0.12,-0.27,0.0,0.29
16.332793951034546,0.27,0.18,0.28,0.42
16.34464192390442,0.53,-0.4,-0.38,0.76
16.354835987091064,0.63,-0.26,-0.6,0.9
16.36409020423889,0.45,0.12,-0.65,0.79
16.374044179916382,0.78,-0.49,-0.99,1.35
16.384167909622192,0.64,0.22,-0.44,0.8
16.39423108100891,0.64,-0.22,-0.63,0.92
16.417925119400024,0.25,0.14,-0.07,0.29
16.422395944595337,0.12,-0.19,-0.08,0.23
16.423825979232788,0.06,0.04,0.36,0.36
16.434870958328247,0.13,-0.06,0.47,0.49
16.444708108901978,0.17,0.0,0.88,0.89
16.454713106155396,0.08,0.06,0.92,0.92
16.464637994766235,0.08,0.02,0.52,0.52
16.47558903694153,0.2,0.1,0.3,0.37
16.485132932662964,0.52,0.11,0.28,0.6
16.49586319923401,0.95,-0.09,0.27,0.99
16.5189311504364,1.12,-0.02,0.37,1.17
16.523249864578247,1.04,-0.01,0.4,1.11
16.52471613883972,1.0,-0.02,0.28,1.03
16.53544592857361,1.3,0.05,0.24,1.32
16.545364141464233,1.59,0.47,0.55,1.74
16.55546498298645,1.21,0.66,0.5,1.46
16.56519913673401,0.53,1.0,0.33,1.17
16.575388193130493,0.75,1.41,-0.47,1.66
16.586095094680786,1.74,1.35,-0.89,2.37
16.602737188339233,5.49,2.77,1.19,6.26
16.62754201889038,2.98,1.34,1.72,3.69
16.63094401359558,0.1,2.31,1.67,2.85
16.633668184280396,1.95,2.51,1.43,3.48
16.64247488975525,3.55,2.74,1.15,4.62
16.652794122695923,3.29,3.54,0.66,4.87
16.662688970565796,3.69,4.91,0.17,6.14
16.672996044158936,5.09,5.6,0.34,7.57
16.682820081710815,6.85,5.84,1.91,9.2
16.692527055740356,8.64,5.98,3.32,11.01
16.702728033065796,9.55,6.32,5.13,12.54
16.72334098815918,9.12,5.53,5.92,12.19
16.726773023605347,8.3,1.56,4.48,9.56
16.7323260307312,4.27,1.36,1.39,4.69
16.74292016029358,1.61,11.58,-1.77,11.82
16.753181219100952,3.98,12.19,-1.8,12.94
16.76302695274353,6.89,6.47,-4.84,10.61
16.773421049118042,9.58,4.61,-6.08,12.24
16.782968997955322,12.47,3.56,-3.83,13.52
16.793883085250854,14.54,0.09,-0.79,14.56
16.80350399017334,5.27,-2.74,-2.09,6.29
16.826273202896118,-6.41,2.52,-8.47,10.91
16.82924509048462,-7.14,4.57,-1.35,8.58
16.832221031188965,-3.75,4.47,7.15,9.22
16.847671031951904,2.71,-0.28,7.77,8.23
16.853313207626343,7.98,-1.2,8.41,11.65
16.86365509033203,10.1,-0.93,4.91,11.26
16.873966932296753,10.85,-1.02,-0.79,10.92
16.883690118789673,11.22,-1.49,-4.8,12.29
16.89403796195984,11.09,-0.85,-5.17,12.26
16.904128074645996,10.0,0.25,-3.46,10.58
16.92658019065857,8.11,0.16,-0.89,8.16
16.92826819419861,6.08,-0.06,1.65,6.3
16.932632207870483,4.55,-0.26,2.72,5.3
16.94655704498291,4.03,-0.33,2.2,4.6
16.95400595664978,4.32,0.0,0.92,4.41
16.964245080947876,4.67,0.52,-0.35,4.71
16.974565029144287,4.52,0.98,-1.01,4.73
16.984678983688354,3.9,1.24,-0.99,4.21
16.99488615989685,2.99,1.44,-0.43,3.34
17.004884004592896,1.79,1.73,0.19,2.49
17.028069019317627,0.66,2.1,0.27,2.21
17.03208899497986,0.02,2.36,-0.09,2.36
17.03361487388611,-0.03,2.65,-0.6,2.71
17.04434108734131,0.18,3.07,-1.01,3.23
17.054668188095093,0.13,3.54,-1.16,3.72
17.064993143081665,-0.51,4.05,-1.32,4.29
17.075419187545776,-1.69,4.57,-1.67,5.15
17.08518099784851,-3.13,4.94,-2.07,6.2
17.095200061798096,-4.4,4.95,-2.36,7.03
17.105456113815308,-5.3,4.88,-2.69,7.69
17.128002882003784,-6.24,5.02,-2.79,8.48
17.130829095840454,-7.34,5.17,-3.26,9.55
17.133657217025757,-8.54,5.33,-4.08,10.86
17.14689803123474,-9.43,5.16,-4.68,11.72
17.155534029006958,-9.51,4.57,-4.79,11.58
17.16544008255005,-9.17,3.25,-4.9,10.89
17.17622208595276,-9.95,0.84,-4.75,11.05
17.185625076293945,-13.06,-1.51,-5.42,14.22
17.195896863937378,-16.69,-3.18,-5.69,17.91
17.207046031951904,-18.23,-3.89,-5.04,19.3
17.231189012527466,-17.27,-3.41,-4.68,18.21
17.234800100326538,-14.86,-3.11,-5.36,16.1
17.237645864486694,-12.85,-2.71,-6.07,14.46
17.244275093078613,-11.76,-2.15,-6.65,13.68
17.256452083587646,-11.4,-1.55,-6.38,13.15
17.26585102081299,-5.31,8.83,-6.19,12.02
17.27603006362915,16.02,27.7,1.29,32.02
17.286468029022217,14.23,3.38,8.2,16.76
17.296287059783936,11.85,-16.6,3.12,20.63
17.307206869125366,8.08,-11.94,5.52,15.43
17.32832407951355,-11.17,-3.68,2.61,12.04
17.33039116859436,-20.3,-1.15,-1.98,20.42
17.334721088409424,-22.36,14.22,-4.44,26.86
17.346551179885864,-16.22,7.72,-4.46,18.5
17.356631994247437,-3.48,-1.55,6.1,7.19
17.366337060928345,0.03,0.55,3.79,3.82
17.37663197517395,-0.2,-0.58,-3.49,3.54
17.38666605949402,-5.42,2.83,-9.49,11.28
17.39677906036377,-8.09,1.03,-9.31,12.37
17.40660309791565,-2.96,1.54,-2.8,4.35
17.427906036376953,0.69,-0.51,0.71,1.11
17.42948007583618,0.41,-0.4,2.01,2.09
17.435619115829468,-1.97,0.5,-0.36,2.06
17.447066068649292,-3.84,0.89,-1.89,4.37
17.457002878189087,-3.24,0.77,-0.78,3.42
17.467217206954956,-1.19,0.16,0.87,1.48
17.47761106491089,0.16,-0.14,1.76,1.77
17.487497091293335,0.19,-0.09,0.77,0.79
17.497518062591553,-0.48,0.04,0.02,0.48
17.508020162582397,-1.02,0.29,0.0,1.06
17.531013011932373,-0.82,-0.01,-0.1,0.82
17.534733057022095,-0.09,-0.15,-0.09,0.19
17.536264181137085,0.38,0.22,-0.17,0.47
17.547605991363525,0.61,-0.48,-0.83,1.13
17.557995080947876,0.5,-0.07,-0.78,0.92
17.567381143569946,0.17,0.22,-0.55,0.61
17.577481031417847,0.17,-0.36,-0.81,0.9
17.588191986083984,0.57,-0.06,-0.43,0.71
17.59799599647522,0.45,0.1,-0.01,0.46
17.60858416557312,0.44,-0.52,-0.32,0.75
17.631265878677368,0.33,0.16,0.37,0.52
17.633361101150513,0.49,-0.26,0.33,0.64
17.636715173721313,0.46,0.03,0.07,0.46
17.647969961166382,0.3,-0.1,0.18,0.36
17.65854501724243,0.04,0.04,0.3,0.3
17.668387174606323,0.02,0.09,0.24,0.25
17.678060054779053,0.22,0.15,0.49,0.55
17.68876814842224,0.34,0.13,0.54,0.65
17.698757886886597,0.49,0.12,0.41,0.65
17.70904302597046,0.66,0.01,0.69,0.95
17.73300290107727,0.92,-0.03,0.8,1.21
17.73509407043457,1.04,0.04,0.58,1.19
17.737115144729614,1.3,0.2,0.35,1.36
17.74905514717102,1.64,0.25,0.45,1.71
17.75891399383545,1.64,0.66,0.37,1.8
17.768702030181885,1.54,1.25,-0.19,1.99
17.779231071472168,1.72,2.23,-0.39,2.84
17.789737939834595,2.33,1.91,-0.59,3.07
17.799225091934204,5.43,3.14,1.42,6.43
17.810837030410767,5.87,1.74,2.66,6.67
17.832990884780884,1.97,2.68,2.06,3.91
17.836311101913452,1.5,3.32,1.94,4.12
17.837610960006714,2.62,3.48,1.63,4.65
17.849436044692993,4.3,4.92,1.64,6.73
17.8595449924469,4.54,6.36,0.31,7.82
17.868990182876587,5.59,6.4,1.19,8.58
17.879541158676147,6.73,5.69,2.34,9.11
17.889782190322876,7.7,5.87,3.33,10.23
17.899879217147827,9.42,6.17,4.27,12.04
17.909823179244995,9.49,6.14,5.46,12.55
17.932671070098877,7.45,3.54,3.7,9.04
17.93489098548889,3.4,3.5,1.33,5.05
17.938055992126465,-0.27,9.43,-1.82,9.6
17.950111150741577,1.14,11.39,-2.94,11.81
17.9599769115448,4.91,7.62,-3.05,9.56
17.96997094154358,9.45,5.73,-2.98,11.44
17.980448961257935,13.68,2.0,-1.1,13.86
17.990417003631592,4.14,-4.65,-1.92,6.51
18.000413179397583,-7.88,4.96,-9.33,13.18
18.010499000549316,-5.77,6.38,-0.56,8.62
18.0338351726532,2.41,1.54,7.53,8.05
18.0361590385437,8.3,-1.8,9.13,12.46
18.038563013076782,11.02,-2.16,8.18,13.89
18.050649881362915,12.08,-2.26,3.84,12.87
18.06048607826233,12.16,-3.3,-1.44,12.68
18.070512056350708,11.97,-2.99,-2.37,12.56
18.08091902732849,11.02,-1.0,-0.47,11.07
18.091126203536987,8.7,-0.61,1.79,8.9
18.10097599029541,6.13,-0.47,3.73,7.19
18.111334085464478,4.26,0.08,4.06,5.88
18.134709119796753,3.12,0.68,2.71,4.18
18.138479948043823,2.68,1.15,0.89,3.04
18.139550924301147,2.71,1.39,-0.06,3.04
18.1512291431427,2.81,1.54,-0.04,3.2
18.16089415550232,2.51,1.66,0.62,3.07
18.171303033828735,1.84,1.62,1.23,2.74
18.180954217910767,1.03,1.57,1.33,2.3
18.19191813468933,0.55,1.66,1.06,2.04
18.201120138168335,0.24,1.88,0.4,1.93
18.211631059646606,-0.01,2.19,-0.26,2.2
18.23532795906067,-0.28,2.53,-0.61,2.61
18.23713517189026,-0.74,2.86,-0.77,3.05
18.239853143692017,-1.42,3.24,-0.8,3.62
18.25157403945923,-2.26,3.6,-1.13,4.39
18.26181387901306,-2.92,3.91,-1.52,5.11
18.271810054779053,-3.42,4.19,-1.72,5.67
18.28148603439331,-3.96,4.52,-2.05,6.34
18.291864156723022,-4.58,4.97,-2.36,7.15
18.301893949508667,-5.19,5.32,-2.48,7.83
18.311888933181763,-5.81,5.5,-2.58,8.4
18.334074020385742,-6.23,5.45,-2.69,8.7
18.33524489402771,-6.41,5.06,-2.83,8.64
18.340490102767944,-6.62,3.68,-2.63,8.01
18.35245108604431,-8.04,1.84,-1.93,8.47
18.36216402053833,-10.77,0.26,-2.34,11.02
18.372334003448486,-13.63,-1.45,-2.12,13.86
18.38210701942444,-15.98,-1.8,-2.09,16.21
18.392149209976196,-16.48,-1.78,-2.81,16.81
18.402302026748657,-14.66,-1.97,-3.33,15.16
18.4129900932312,-12.7,-1.42,-3.71,13.3
18.435436010360718,-11.9,-1.02,-4.06,12.61
18.43932008743286,-11.23,-1.1,-3.82,11.91
18.441091060638428,-10.62,-0.83,-3.25,11.13
18.451433897018433,-10.1,0.11,-3.51,10.69
18.462764978408813,3.92,19.51,-2.91,20.11
18.474217176437378,19.09,19.56,4.02,27.62
18.482741117477417,15.91,-9.98,-3.22,19.05
18.493269205093384,13.68,-17.48,-9.25,24.04
18.502726078033447,-4.21,-4.9,-3.1,7.16
18.513550996780396,-20.54,-0.81,4.81,21.11
18.536168098449707,-22.27,7.49,5.16,24.05
18.53870987892151,-22.13,13.78,-2.42,26.18
18.54141116142273,-9.8,0.33,1.89,9.98
18.553359985351562,-1.15,0.3,6.68,6.78
18.56342911720276,-0.47,-0.44,0.08,0.64
18.573235988616943,-1.21,0.75,-5.69,5.86
18.583462953567505,-5.92,2.87,-9.89,11.87
18.593476057052612,-7.2,1.06,-6.18,9.54
18.603761911392212,-2.17,1.15,-0.88,2.6
18.613839864730835,0.29,-0.49,1.89,1.97
18.63832688331604,-0.18,-0.02,1.41,1.42
18.643409967422485,-1.63,0.42,-1.44,2.21
18.64554190635681,-2.2,0.55,-2.29,3.22
18.652022123336792,-1.65,0.44,-0.84,1.9
18.663841009140015,-0.73,0.09,0.45,0.86
18.674197912216187,-0.26,-0.01,1.03,1.06
18.683944940567017,-0.2,-0.03,0.91,0.93
18.694143056869507,-0.77,0.1,0.19,0.79
18.704220056533813,-0.81,0.18,0.22,0.85
18.714436054229736,-0.91,0.14,-0.04,0.92
18.737545013427734,-0.14,-0.02,0.02,0.14
18.740395069122314,0.66,-0.16,-0.1,0.68
18.742790937423706,1.03,-0.36,-0.59,1.24
18.754734992980957,1.21,-0.4,-0.89,1.55
18.764486074447632,1.2,-0.33,-0.91,1.54
18.774725198745728,0.98,-0.35,-0.75,1.28
18.784581899642944,0.5,-0.04,-0.41,0.64
18.79486918449402,-0.15,-0.17,-0.35,0.41
18.805037021636963,-0.52,0.05,-0.14,0.54
18.81480097770691,-0.58,0.17,0.14,0.62
18.838499069213867,0.23,-0.39,-0.04,0.45
18.842380046844482,0.94,-0.1,0.05,0.94
18.843241930007935,1.25,-0.25,0.09,1.27
18.855194091796875,1.0,-0.06,0.45,1.09
18.864681005477905,0.38,0.0,0.56,0.67
18.87545895576477,-0.13,0.14,0.53,0.56
18.8850200176239,-0.53,0.28,0.38,0.7
18.895232915878296,-0.25,0.06,0.32,0.41
18.905597925186157,0.56,0.02,0.72,0.91
18.9152250289917,0.98,-0.14,0.31,1.03
18.937275171279907,0.7,0.17,0.22,0.75
18.938402891159058,0.7,0.06,0.43,0.82
18.944073915481567,0.61,0.14,0.37,0.72
18.95600390434265,0.58,0.36,0.44,0.81
18.965428113937378,0.35,0.44,0.83,1.0
18.975786924362183,0.11,0.89,0.65,1.1
18.98549509048462,-0.22,0.69,0.23,0.75
18.995846033096313,0.48,0.99,-0.36,1.15
19.00589919090271,2.66,1.7,-0.37,3.17
19.016103982925415,5.42,2.66,1.11,6.13
19.038753986358643,5.25,1.29,2.11,5.8
19.041249990463257,1.86,2.49,1.78,3.58
19.0445659160614,0.97,3.2,1.48,3.65
19.05635714530945,2.85,3.26,1.54,4.59
19.066046953201294,6.56,3.7,2.04,7.8
19.07614302635193,5.39,4.8,0.72,7.25
19.086372137069702,4.13,5.91,1.27,7.32
19.09659504890442,5.63,7.38,1.77,9.44
19.10674214363098,8.68,7.83,3.52,12.2
19.117357969284058,11.11,6.93,5.46,14.18
19.13935899734497,10.55,8.23,7.17,15.18
19.14246702194214,9.25,6.37,8.55,14.11
19.145018100738525,7.07,2.57,4.9,8.97
19.16213297843933,3.93,7.4,-1.03,8.44
19.1662540435791,4.69,14.78,-4.5,16.14
19.17527413368225,7.3,8.99,-8.14,14.15
19.186835050582886,8.82,4.57,-8.95,13.37
19.196694135665894,12.46,5.74,-5.52,14.78
19.206881999969482,12.78,-2.21,-1.27,13.03
19.217451095581055,-0.68,0.84,-7.1,7.18
19.240041971206665,-3.67,7.53,-2.21,8.66
19.241830110549927,1.72,3.31,5.96,7.03
19.246735095977783,8.31,0.47,6.82,10.76
19.262217044830322,11.8,-0.38,8.15,14.34
19.267253160476685,12.73,-1.0,6.64,14.39
19.27739691734314,12.17,-1.81,3.24,12.72
19.28719210624695,10.44,-2.35,-0.8,10.73
19.2972891330719,8.32,-0.99,-2.41,8.71
19.308128118515015,7.31,-0.56,-0.6,7.35
19.31765913963318,6.19,-0.78,2.37,6.67
19.341897010803223,4.35,-0.64,4.7,6.43
19.344760179519653,2.26,-0.04,4.44,4.98
19.34607720375061,0.82,0.19,2.2,2.35
19.362349033355713,0.6,0.31,0.16,0.69
19.367855072021484,1.17,0.47,-0.3,1.29
19.377708196640015,1.73,0.72,0.33,1.9
19.38811206817627,1.64,1.24,1.11,2.33
19.39782691001892,1.04,1.72,1.21,2.34
19.408719062805176,0.5,2.18,0.51,2.29
19.41826105117798,0.26,2.61,0.01,2.62
19.441581964492798,-0.02,2.94,-0.12,2.94
19.444408178329468,-0.67,3.42,-0.08,3.48
19.4464430809021,-1.52,4.06,0.05,4.33
19.463006019592285,-2.36,4.48,-0.15,5.06
19.468082189559937,-2.98,4.74,-0.48,5.61
19.478142023086548,-3.48,4.98,-0.84,6.13
19.488976001739502,-4.04,5.21,-1.12,6.68
19.4983971118927,-4.64,5.26,-1.36,7.14
19.508872985839844,-5.44,5.34,-1.66,7.8
19.518623113632202,-6.62,5.51,-2.29,8.91
19.540958166122437,-8.17,5.83,-3.32,10.57
19.542694091796875,-10.48,5.92,-4.51,12.85
19.54727602005005,-12.58,5.11,-5.84,14.78
19.563192129135132,-13.22,3.41,-6.59,15.15
19.569241046905518,-12.5,0.82,-5.79,13.8
19.578984022140503,-13.47,-1.0,-5.56,14.6
19.589158058166504,-15.52,-2.81,-5.86,16.82
19.5994930267334,-15.81,-4.42,-5.1,17.19
19.60928511619568,-14.39,-4.41,-4.84,15.8
19.61939001083374,-13.44,-3.33,-5.89,15.04
19.64255118370056,-14.33,-2.48,-8.24,16.71
19.6441969871521,-15.62,-1.72,-9.78,18.5
19.64802598953247,-3.85,13.9,-8.97,16.98
19.662540197372437,19.3,26.24,4.27,32.85
19.668915033340454,16.95,-2.52,5.34,17.94
19.679527044296265,14.53,-20.9,-2.13,25.54
19.689953088760376,-2.23,-10.87,0.72,11.11
19.699650049209595,-21.86,-2.53,4.91,22.54
19.70981001853943,-25.61,7.4,6.85,27.52
19.72017002105713,-26.56,18.84,-7.25,33.36
19.741213083267212,-9.82,-0.36,-2.77,10.2
19.7427761554718,1.36,-0.14,4.8,4.99
19.748322010040283,1.21,-0.6,-2.4,2.75
19.763554096221924,-4.9,2.86,-10.26,11.72
19.77017307281494,-9.4,1.39,-8.54,12.77
19.780176877975464,-3.57,1.53,-2.18,4.45
19.790358066558838,0.51,-0.44,1.24,1.41
19.8004469871521,0.34,-0.37,1.73,1.8
19.810468912124634,-1.84,0.48,-1.08,2.18
19.820693016052246,-2.8,0.65,-2.45,3.77
19.843669176101685,-2.03,0.44,-0.95,2.28
19.847081899642944,-0.53,0.01,0.98,1.11
19.849056005477905,0.43,-0.23,1.59,1.66
19.862953901290894,0.39,-0.19,0.88,0.98
19.870604038238525,0.05,-0.1,0.0,0.11
19.88052201271057,-0.32,0.03,-0.15,0.35
19.891048192977905,-0.71,-0.01,0.04,0.71
19.900912046432495,-0.5,0.09,0.07,0.51
19.910847902297974,0.16,-0.36,-0.76,0.85
19.921333074569702,0.18,0.12,-1.32,1.33
19.94128704071045,0.47,-0.22,-1.81,1.88
19.942843198776245,0.37,0.12,-0.64,0.74
19.949490070343018,-0.1,0.06,-0.13,0.17
19.96168804168701,0.06,-0.14,0.39,0.41
19.971302032470703,0.11,0.06,1.12,1.12
19.981307983398438,-0.49,0.34,0.89,1.07
19.99138617515564,-0.93,0.23,0.61,1.13
20.001426935195923,-0.81,0.19,0.71,1.09
20.01223587989807,-0.16,0.13,0.5,0.54
20.022157907485962,0.41,0.13,0.5,0.65
20.038299083709717,0.43,0.14,0.53,0.69
20.039106130599976,0.68,-0.1,0.38,0.78
20.043241024017334,0.67,-0.02,0.25,0.71
20.05540704727173,0.75,0.07,0.25,0.79
20.064905881881714,1.19,-0.03,0.23,1.21
20.074992895126343,1.47,0.27,0.73,1.66
20.08507204055786,1.3,0.29,0.65,1.48
20.095679998397827,1.43,0.51,0.76,1.69
20.10564112663269,1.74,0.81,1.0,2.16
20.11529517173767,1.49,1.61,0.16,2.19
20.139398097991943,2.62,3.11,-0.43,4.08
20.143810033798218,5.89,3.51,1.27,6.97
20.14529800415039,6.2,1.58,2.41,6.83
20.15588116645813,2.67,2.66,1.9,4.22
20.165551900863647,1.48,2.85,2.07,3.82
20.175721883773804,2.32,2.84,1.81,4.08
20.185862064361572,5.56,3.02,2.51,6.8
20.196036100387573,5.27,3.7,1.05,6.52
20.206362009048462,3.77,4.27,1.26,5.83
20.215945959091187,4.69,6.25,1.48,7.95
20.24015498161316,8.19,8.56,2.7,12.15
20.244221925735474,11.48,8.29,5.05,15.03
20.246551990509033,11.96,9.08,7.73,16.88
20.26193594932556,11.32,7.28,9.19,16.29
20.264745950698853,9.68,1.99,5.59,11.35
20.27846121788025,5.3,6.08,0.25,8.06
20.28635287284851,6.07,16.67,-2.36,17.89
20.296374082565308,8.84,11.33,-6.73,15.86
20.306202173233032,11.06,7.62,-13.48,19.02
20.316087007522583,14.05,8.52,-10.94,19.74
20.336827993392944,16.53,3.86,-5.67,17.89
20.340028047561646,5.85,-1.01,-5.97,8.41
20.344946146011353,-7.06,5.63,-11.09,14.3
20.363360166549683,-7.11,5.33,2.55,9.24
20.36602520942688,-1.24,3.42,12.31,12.83
20.376179933547974,6.75,-1.87,12.76,14.55
20.386234045028687,10.34,-2.04,10.46,14.84
20.39631199836731,11.08,-1.4,3.3,11.64
20.406260013580322,11.16,-1.86,-4.07,12.02
20.41698718070984,11.17,-2.56,-7.76,13.83
20.441444158554077,10.84,-1.58,-6.31,12.64
20.444879055023193,9.34,-0.76,-2.57,9.71
20.44800901412964,7.04,-1.12,2.36,7.5
20.46158194541931,4.3,-1.24,6.34,7.76
20.466885089874268,1.68,-0.81,6.78,7.03
20.477195024490356,0.1,-0.21,3.95,3.95
20.48716402053833,0.11,0.4,0.48,0.63
20.497323036193848,0.74,0.95,-1.47,1.9
20.507818937301636,1.3,1.23,-1.62,2.41
20.517431020736694,1.66,1.52,-0.11,2.25
20.54432988166809,1.38,1.82,1.55,2.76
20.54787302017212,0.63,2.12,1.69,2.78
20.550595998764038,-0.28,2.62,0.43,2.66
20.561153173446655,-0.99,2.86,-1.11,3.22
20.566827058792114,-1.3,3.07,-1.67,3.72
20.58020806312561,-1.78,3.49,-1.51,4.19
20.597595930099487,-4.91,5.21,-3.05,7.78
20.607575178146362,-6.74,5.59,-4.06,9.65
20.61729598045349,-7.95,5.97,-4.38,10.86
20.62825107574463,-8.62,6.28,-4.22,11.46
20.648543119430542,-9.12,6.55,-3.97,11.9
20.64977502822876,-9.68,6.98,-4.21,12.65
20.65585207939148,-9.99,7.12,-4.93,13.22
20.668013095855713,-9.79,5.83,-5.84,12.8
20.677803993225098,-10.17,2.85,-5.65,11.97
20.68801999092102,-13.18,-0.16,-6.04,14.49
20.698317050933838,-17.7,-2.01,-5.93,18.77
20.708559036254883,-20.69,-2.89,-5.9,21.7
20.71802592277527,-20.05,-2.79,-6.3,21.2
20.72822403907776,-16.42,-2.97,-6.72,17.98
20.75091290473938,-13.17,-2.41,-7.1,15.15
20.75348687171936,-11.45,-1.78,-6.83,13.45
20.75650906562805,-11.29,-1.44,-6.0,12.86
20.766836881637573,-1.91,15.02,-3.13,15.46
20.77860999107361,15.33,25.19,6.42,30.17
20.788460969924927,13.38,3.17,6.93,15.39
20.798222064971924,18.42,-11.67,-0.05,21.8
20.80889391899109,9.47,-22.41,-5.22,24.88
20.818744897842407,-12.9,-8.05,-10.82,18.66
20.828947067260742,-19.19,-0.27,0.04,19.19
20.85223698616028,-22.37,13.13,4.44,26.31
20.85417604446411,-23.14,14.04,-6.06,27.73
20.85726809501648,-6.23,-1.41,-0.28,6.39
20.86902689933777,2.27,-0.26,3.65,4.3
20.878852128982544,0.76,-1.07,-2.03,2.41
20.888983964920044,-2.36,1.16,-5.07,5.71
20.898948907852173,-9.84,2.98,-6.53,12.17
20.90900707244873,-7.44,1.32,-4.56,8.82
20.919185876846313,-2.41,1.09,0.06,2.64
20.92951798439026,-0.97,-0.2,1.45,1.75
20.952603101730347,-1.43,0.27,1.12,1.83
20.955915212631226,-2.84,0.67,-0.08,2.91
20.957741022109985,-3.57,0.8,-0.53,3.69
20.967809915542603,-2.33,0.41,0.04,2.36
20.979728937149048,-0.62,0.1,0.75,0.97
20.989630937576294,0.35,-0.17,0.62,0.73
20.999710083007812,0.25,-0.2,-0.01,0.32
21.00964903831482,-0.27,0.04,-0.55,0.61
21.019316911697388,-0.37,-0.07,-0.6,0.7
21.03025794029236,-0.22,0.17,-0.04,0.28
21.052973985671997,0.17,-0.28,-0.3,0.44
21.05494499206543,0.41,0.04,-0.07,0.41
21.058202981948853,0.61,-0.21,-0.46,0.79
21.070106983184814,0.83,-0.16,-0.38,0.92
21.0798020362854,0.6,-0.12,-0.34,0.7
21.09003210067749,0.22,-0.12,-0.33,0.41
21.099958181381226,-0.18,0.06,-0.14,0.23
21.11051917076111,-0.19,-0.1,-0.15,0.26
21.120541095733643,0.36,0.01,-0.01,0.36
21.130603075027466,0.64,-0.13,0.19,0.68
21.155576944351196,0.56,0.0,0.17,0.58
21.159775018692017,0.48,0.05,-0.06,0.48
21.161241054534912,0.68,-0.09,-0.22,0.72
21.16874408721924,1.01,-0.07,0.23,1.03
21.180737018585205,1.07,-0.1,0.37,1.13
21.19073510169983,0.82,-0.06,0.42,0.92
21.20055317878723,0.64,0.05,0.55,0.84
21.211163997650146,0.71,0.07,0.57,0.91
21.221227884292603,0.95,0.12,0.74,1.21
21.231051206588745,0.82,0.55,0.88,1.32
21.253902196884155,0.74,1.1,0.72,1.5
21.258073091506958,0.81,1.28,0.14,1.52
21.260669946670532,1.62,2.44,-0.63,2.99
21.269831895828247,5.32,4.04,0.59,6.7
21.28103804588318,6.26,2.16,2.14,6.95
21.291587114334106,1.87,2.6,1.63,3.59
21.301208019256592,1.17,3.12,2.04,3.9
21.311413049697876,3.47,2.87,1.78,4.84
21.321341037750244,3.55,2.83,1.21,4.69
21.33164620399475,2.84,3.29,0.63,4.39
21.354603052139282,3.65,4.79,0.21,6.02
21.357269048690796,6.21,6.52,0.52,9.01
21.35975408554077,8.38,6.89,1.95,11.02
21.36998701095581,9.72,6.59,4.53,12.58
21.381927013397217,9.87,7.97,7.92,14.95
21.392014026641846,9.29,7.07,9.24,14.88
21.401692152023315,8.23,2.73,6.32,10.72
21.412049055099487,5.74,7.61,-0.54,9.54
21.42234206199646,8.27,17.62,-5.09,20.11
21.432421922683716,10.99,11.27,-9.17,18.21
21.45510697364807,11.02,4.93,-14.05,18.52
21.45746111869812,13.32,6.8,-12.53,19.51
21.46063804626465,17.02,3.75,-5.49,18.27
21.472734212875366,9.8,-3.24,-4.71,11.34
21.482376098632812,-3.05,2.62,-8.83,9.7
21.492604970932007,-6.93,3.37,-0.59,7.72
21.502369165420532,-4.87,4.09,10.82,12.55
21.512416124343872,1.82,-0.21,12.34,12.47
21.522908926010132,7.01,-1.87,9.77,12.16
21.532407999038696,9.38,-1.69,4.09,10.37
21.5542151927948,11.0,-2.15,-0.94,11.24
21.556061029434204,11.77,-2.6,-4.53,12.87
21.561203002929688,11.96,-2.44,-4.63,13.05
21.573175191879272,10.52,-1.0,-2.84,10.94
21.582451105117798,8.13,-1.1,-0.1,8.2
21.592665910720825,4.99,-1.03,2.96,5.89
21.603037118911743,2.14,-0.79,4.7,5.22
21.612950086593628,0.78,-0.82,5.31,5.42
21.623722076416016,0.79,-0.62,4.99,5.09
21.633543014526367,1.39,-0.41,3.17,3.48
21.656183004379272,2.12,-0.29,0.89,2.31
21.659646034240723,2.34,0.49,-0.36,2.41
21.661617040634155,2.04,1.12,-0.46,2.37
21.67325520515442,1.38,1.58,0.14,2.1
21.681771993637085,0.63,1.96,1.17,2.36
21.693603038787842,-0.2,2.49,1.51,2.91
21.703500032424927,-0.74,3.15,1.1,3.41
21.713701963424683,-1.25,4.0,0.12,4.19
21.7243869304657,-1.97,4.85,-0.85,5.3
21.733694076538086,-3.12,5.64,-1.92,6.72
21.756458044052124,-4.39,6.04,-2.69,7.93
21.75827717781067,-5.64,6.39,-3.08,9.06
21.762278079986572,-6.77,6.67,-3.29,10.05
21.77953791618347,-7.8,6.74,-3.51,10.88
21.78351616859436,-8.72,6.69,-3.83,11.63
21.79418396949768,-9.11,6.56,-4.33,12.03
21.803822994232178,-8.88,6.36,-4.56,11.83
21.81394100189209,-8.37,5.3,-4.84,11.02
21.82463002204895,-8.79,2.04,-4.19,9.94
21.834419012069702,-13.59,-1.08,-4.91,14.49
21.85730504989624,-20.37,-2.85,-5.57,21.3
21.860746145248413,-23.93,-3.56,-4.31,24.57
21.862941026687622,-22.89,-2.52,-3.33,23.26
21.879467010498047,-18.37,-2.05,-4.4,19.0
21.8840548992157,-14.15,-1.82,-5.79,15.39
21.89480996131897,-7.98,7.36,-6.68,12.74
21.904606103897095,14.34,27.27,1.4,30.84
21.914565086364746,16.55,3.1,3.96,17.29
21.9248468875885,12.05,-17.87,-8.08,23.01
21.934723138809204,6.89,-12.01,-11.52,18.01
21.9547860622406,-13.64,-3.23,2.72,14.27
21.95628809928894,-21.57,0.33,10.49,23.98
21.96518111228943,-22.16,13.27,0.57,25.83
21.979498147964478,-18.35,8.19,-6.69,21.17
21.984654188156128,-4.21,-1.47,3.02,5.38
21.99501395225525,0.39,0.15,5.59,5.6
22.005204916000366,-0.31,-0.93,-1.19,1.54
22.015141010284424,-3.92,2.29,-6.81,8.18
22.02556014060974,-10.27,2.58,-8.07,13.31
22.035459995269775,-6.51,1.69,-3.88,7.76
22.057403087615967,-2.51,0.64,1.22,2.86
22.058964014053345,-0.86,-0.1,2.3,2.45
22.065234899520874,-1.32,0.31,0.35,1.4
22.078479051589966,-1.96,0.57,-2.03,2.87
22.0854229927063,-2.09,0.62,-1.69,2.75
22.095701932907104,-1.47,0.25,-0.32,1.52
22.106108903884888,-0.71,-0.02,0.77,1.04
22.1157329082489,-0.29,-0.04,0.61,0.67
22.126134157180786,-0.25,-0.02,0.12,0.27
22.13622212409973,-0.38,0.03,-0.12,0.39
22.159584045410156,-0.52,-0.01,-0.08,0.52
22.16312599182129,-0.43,0.08,-0.05,0.44
22.164788961410522,0.02,-0.3,-0.3,0.42
22.1788010597229,0.38,-0.07,-0.16,0.41
22.1859450340271,0.37,-0.05,-0.34,0.5
22.196240186691284,0.3,-0.32,-0.45,0.62
22.206722021102905,0.25,0.04,-0.3,0.39
22.216368913650513,0.28,-0.33,-0.64,0.77
22.226485013961792,0.11,0.03,-0.46,0.47
22.23654007911682,0.04,-0.14,-0.33,0.36
22.25876212120056,0.28,-0.09,0.23,0.37
22.25993800163269,0.6,-0.26,0.07,0.65
22.26533007621765,0.59,-0.13,-0.19,0.63
22.280729055404663,0.39,-0.05,0.01,0.39
22.286646127700806,0.14,0.08,0.39,0.42
22.29671311378479,0.22,-0.04,0.37,0.43
22.307281017303467,0.67,0.01,0.5,0.83
22.317157983779907,0.69,0.0,0.24,0.73
22.32712721824646,0.7,0.06,0.48,0.85
22.33743691444397,0.71,0.05,0.77,1.04
22.360774993896484,0.64,0.35,0.94,1.18
22.364341974258423,0.87,0.26,1.23,1.52
22.3662211894989,1.06,0.41,1.53,1.9
22.378839015960693,0.86,0.98,0.66,1.46
22.387181997299194,1.0,1.8,0.2,2.06
22.39735507965088,1.48,1.83,-0.33,2.37
22.407525062561035,3.49,3.06,-0.12,4.64
22.417520999908447,6.48,2.86,1.51,7.24
22.42751717567444,3.53,2.04,1.4,4.31
22.438233137130737,0.17,2.78,1.66,3.24
22.461053133010864,1.82,3.03,1.9,4.01
22.464550018310547,3.17,3.27,1.69,4.85
22.466602087020874,2.89,3.53,1.54,4.81
22.47629714012146,3.24,4.17,1.39,5.46
22.488444089889526,4.42,5.01,1.36,6.81
22.497679948806763,6.04,5.96,2.27,8.78
22.508071184158325,7.53,5.94,4.06,10.41
22.517890214920044,9.02,5.71,6.71,12.6
22.5284321308136,10.09,7.02,10.09,15.9
22.538578987121582,9.31,2.77,11.41,14.98
22.56098198890686,3.78,-0.77,8.36,9.2
22.564138174057007,1.14,14.19,5.11,15.12
22.56664490699768,5.23,17.08,3.45,18.19
22.580820083618164,9.4,6.53,-2.64,11.74
22.588669061660767,12.34,5.21,-13.84,19.26
22.598438024520874,13.95,7.49,-17.67,23.72
22.60872197151184,15.03,6.77,-14.35,21.85
22.618407011032104,7.25,0.84,-4.13,8.38
22.628725051879883,-8.1,9.18,-6.99,14.09
22.6394100189209,-11.05,7.53,2.28,13.56
22.656893968582153,-5.63,4.34,14.72,16.34
22.6582350730896,3.48,0.46,16.25,16.62
22.66737389564514,9.2,-0.93,11.13,14.47
22.67911410331726,11.86,-1.23,2.95,12.28
22.68921709060669,13.6,-1.27,-2.28,13.84
22.698926210403442,14.09,-2.81,-8.19,16.53
22.70901107788086,14.29,-3.04,-8.15,16.72
22.719239950180054,12.77,-0.98,-5.03,13.75
22.72963809967041,9.64,-1.04,-0.91,9.73
22.739737033843994,5.92,-1.17,3.18,6.82
22.761921167373657,2.64,-0.76,5.76,6.38
22.76394486427307,0.48,-0.24,6.78,6.8
22.76786208152771,-0.79,0.47,5.31,5.38
22.77924418449402,-0.83,0.45,1.97,2.18
22.789788961410522,-0.04,-0.05,-1.34,1.34
22.799848079681396,0.76,0.54,-2.97,3.11
22.809882879257202,1.15,1.29,-3.02,3.47
22.820120096206665,1.27,1.4,-1.41,2.35
22.830201864242554,0.52,1.68,0.53,1.83
22.839745044708252,-0.57,2.14,1.25,2.54
22.862889051437378,-1.33,2.68,0.91,3.12
22.865729093551636,-1.66,3.36,-0.07,3.74
22.868294954299927,-1.97,4.21,-1.32,4.83
22.879995107650757,-2.75,5.16,-2.25,6.26
22.89020800590515,-4.01,5.9,-3.07,7.76
22.90012502670288,-5.53,6.67,-3.66,9.4
22.910566091537476,-7.23,7.53,-4.3,11.28
22.920849084854126,-8.97,7.88,-5.18,13.01
22.930760145187378,-10.47,7.71,-5.81,14.24
22.94073796272278,-11.55,7.03,-6.16,14.85
22.96323299407959,-12.01,5.64,-6.27,14.67
22.966663122177124,-12.27,2.85,-5.9,13.9
22.96873688697815,-14.76,-0.21,-6.14,15.98
22.979223012924194,-18.87,-1.96,-6.82,20.16
22.991074085235596,-21.12,-2.83,-6.85,22.38
23.0007541179657,-20.51,-3.06,-7.16,21.93
23.01096796989441,-17.28,-3.63,-7.55,19.2
23.020754098892212,-14.18,-3.22,-6.72,16.01
23.03121590614319,-12.69,-2.05,-6.11,14.23
23.04172396659851,-2.01,16.57,-5.22,17.48
23.064146995544434,16.9,25.8,7.89,31.83
23.065706968307495,13.37,1.12,7.95,15.59
23.069628953933716,18.19,-14.41,-6.55,24.11
23.08147406578064,13.69,-21.45,-10.18,27.4
23.091388940811157,-12.49,-8.38,-7.23,16.68
23.101287126541138,-21.21,-0.92,2.41,21.36
23.111191034317017,-25.17,13.41,4.33,28.84
23.122438192367554,-27.46,16.65,-4.51,32.42
23.131234884262085,-8.36,-1.18,4.04,9.35
23.142194986343384,2.39,-0.17,7.04,7.43
23.162535905838013,-0.25,0.14,-3.53,3.54
23.16348099708557,-10.36,2.98,-10.57,15.09
23.16996121406555,-9.18,1.19,-7.23,11.74
23.181732892990112,-2.57,1.2,-0.77,2.93
23.192025899887085,0.44,-0.64,1.28,1.49
23.20185112953186,0.51,-0.19,1.6,1.69
23.21200203895569,-1.07,0.29,-1.13,1.58
23.222043991088867,-1.91,0.63,-2.92,3.54
23.232281923294067,-1.12,0.42,-1.86,2.21
23.242159128189087,0.16,0.06,-0.29,0.33
23.26437020301819,0.45,-0.19,0.52,0.71
23.26572299003601,-0.25,0.07,0.67,0.71
23.2707679271698,-1.38,0.25,0.29,1.43
23.28245520591736,-1.82,0.34,-0.01,1.85
23.292268991470337,-1.38,0.26,0.44,1.47
23.30244517326355,-0.59,0.16,0.52,0.8
23.312605142593384,0.03,-0.02,-0.35,0.35
23.32301115989685,0.26,-0.08,-0.89,0.93
23.332524061203003,0.36,-0.08,-0.79,0.87
23.343036890029907,0.24,-0.05,-0.14,0.28
23.367727994918823,0.15,-0.19,-0.34,0.41
23.370659112930298,0.03,-0.09,-0.73,0.73
23.371949911117554,0.29,-0.06,-0.4,0.49
23.38333010673523,0.42,-0.11,0.03,0.43
23.394284963607788,0.29,-0.06,0.31,0.42
23.40301489830017,-0.22,0.06,0.06,0.23
23.41284704208374,-0.39,0.11,0.2,0.45
23.423274040222168,-0.17,0.1,0.56,0.59
23.43328309059143,-0.08,0.13,0.3,0.33
23.443345069885254,0.14,0.01,0.26,0.29
23.467861890792847,0.39,0.03,0.27,0.47
23.469527006149292,0.47,0.03,0.1,0.48
23.471719980239868,0.53,0.07,0.07,0.53
23.483870029449463,0.52,0.04,-0.01,0.52
23.493548154830933,0.53,0.31,0.55,0.82
23.503411054611206,0.57,0.32,0.65,0.92
23.513846158981323,0.4,0.19,0.5,0.66
23.524126052856445,0.71,0.44,0.67,1.07
23.53377103805542,1.35,0.6,1.01,1.78
23.544458150863647,1.75,1.06,0.67,2.15
23.56794500350952,2.84,1.42,-0.15,3.17
23.57169008255005,4.44,2.07,0.58,4.93
23.57301115989685,4.49,1.47,0.97,4.82
23.584212064743042,2.02,2.02,0.34,2.87
23.594130992889404,1.15,2.21,0.73,2.59
23.6042001247406,1.94,2.49,0.9,3.28
23.613839864730835,5.21,3.01,1.58,6.22
23.624752044677734,5.18,3.5,0.74,6.29
23.634401082992554,3.93,4.27,1.31,5.94
23.644793033599854,6.22,5.24,2.26,8.44
23.665775060653687,9.04,6.61,2.91,11.57
23.667145013809204,10.14,6.68,4.42,12.92
23.672981023788452,10.13,5.53,7.31,13.66
23.68468689918518,10.06,6.03,9.82,15.29
23.69468903541565,9.35,1.57,9.46,13.39
23.704958200454712,3.24,0.64,5.94,6.79
23.71456217765808,1.09,17.88,4.33,18.42
23.724961042404175,5.02,15.23,2.02,16.16
23.7349112033844,8.9,5.69,-4.83,11.61
23.74500012397766,11.07,6.25,-12.85,18.07
23.76746106147766,12.83,7.49,-16.58,22.26
23.76890802383423,14.06,5.71,-14.19,20.77
23.77350115776062,5.26,0.72,-5.93,7.95
23.785593032836914,-10.12,7.97,-2.69,13.15
23.79497003555298,-10.81,7.31,14.21,19.29
23.805500030517578,-1.34,2.71,25.29,25.47
23.815232038497925,5.38,0.29,17.09,17.91
23.825676202774048,7.84,-0.73,4.4,9.01
23.835633993148804,10.73,-0.89,-2.95,11.16
23.845853090286255,13.1,-0.23,-6.59,14.66
23.86809992790222,14.04,-0.49,-8.31,16.32
23.869688034057617,13.5,-0.01,-6.37,14.92
23.87567400932312,11.06,0.02,-2.42,11.32
23.88552689552307,7.58,-0.74,1.81,7.82
23.895900011062622,4.0,-0.51,5.63,6.92
23.906126022338867,-1.19,-0.08,6.81,6.91
23.91614603996277,-8.81,3.79,2.8,9.99
23.926268100738525,-7.47,1.59,-1.39,7.76
23.936004877090454,1.87,-1.93,-0.03,2.68
23.946614980697632,7.62,-0.58,1.73,7.83
23.97021508216858,8.56,-0.94,-0.06,8.61
23.97472906112671,2.38,2.41,-2.35,4.12
23.976006984710693,-2.85,2.51,-4.21,5.66
23.986364126205444,-4.72,2.01,-1.91,5.47
23.9962260723114,-4.92,1.93,-0.02,5.28
24.006596088409424,-4.8,1.85,-0.04,5.14
24.016270875930786,-4.67,1.96,-1.76,5.36
24.02642512321472,-4.31,2.32,-2.99,5.73
24.036701917648315,-4.42,2.82,-3.45,6.27
24.04655408859253,-5.19,3.47,-3.83,7.32
24.069123029708862,-6.37,4.38,-3.92,8.66
24.070664167404175,-8.08,5.22,-4.26,10.52
24.075151205062866,-10.04,5.73,-4.99,12.59
24.08724308013916,-11.28,5.81,-5.82,13.95
24.096781969070435,-11.57,5.28,-6.28,14.18
24.107298135757446,-11.72,4.09,-6.79,14.14
24.11710000038147,-12.0,1.77,-7.11,14.06
24.127449989318848,-13.41,-0.91,-6.4,14.88
24.137158155441284,-16.76,-1.89,-6.99,18.25
24.14757800102234,-19.16,-2.31,-6.67,20.41
24.170451879501343,-19.02,-2.54,-6.52,20.26
24.172985076904297,-16.47,-2.92,-6.36,17.89
24.17573618888855,-11.01,4.14,-7.21,13.79
24.187602043151855,7.58,21.02,-1.21,22.37
24.197470903396606,12.78,4.4,10.14,16.89
24.207977056503296,10.05,-8.19,-1.2,13.01
24.217701196670532,12.97,-11.1,-10.43,20.0
24.22782301902771,1.71,-7.64,-9.69,12.45
24.23781991004944,-15.4,-4.63,-1.43,16.14
24.24785304069519,-18.32,1.92,4.45,18.95
24.271544218063354,-21.29,14.73,0.52,25.89
24.27457308769226,-17.38,6.9,-2.22,18.83
24.2761070728302,-2.54,-1.52,4.19,5.13
24.287882089614868,1.49,-0.28,3.61,3.91
24.296529054641724,-0.32,-0.61,-3.78,3.84
24.308634996414185,-9.19,3.42,-9.19,13.43
24.318022966384888,-9.76,1.38,-8.49,13.0
24.328150987625122,-3.11,1.36,-1.97,3.92
24.338213205337524,-0.2,-0.33,1.52,1.56
24.34834313392639,-0.67,0.03,1.9,2.01
24.371237993240356,-2.36,0.45,-0.45,2.44
24.37318706512451,-3.45,0.93,-1.9,4.04
24.37695598602295,-2.53,0.57,-1.48,2.98
24.38878321647644,-0.65,0.16,-0.13,0.68
24.398585081100464,0.38,-0.14,0.75,0.85
24.40889000892639,0.41,-0.17,0.48,0.65
24.418686151504517,-0.25,-0.01,-0.15,0.29
24.428832054138184,-0.62,0.03,-0.35,0.71
24.439661026000977,-0.73,0.16,0.09,0.75
24.448764085769653,-0.45,-0.02,0.16,0.47
24.47116708755493,-0.02,-0.12,0.18,0.21
24.472662210464478,0.1,0.04,0.1,0.14
24.477433919906616,0.1,-0.2,0.05,0.22
24.48959517478943,-0.12,0.11,0.12,0.2
24.49892020225525,-0.01,-0.18,-0.23,0.29
24.509258031845093,0.17,0.07,-0.14,0.23
24.519219160079956,0.53,-0.12,-0.33,0.63
24.529677152633667,0.85,-0.24,-0.16,0.89
24.539646863937378,0.81,-0.21,-0.2,0.86
24.54963207244873,0.7,-0.13,-0.03,0.71
24.572465181350708,0.46,-0.12,-0.04,0.47
24.576027154922485,0.34,0.06,-0.02,0.34
24.577900171279907,0.62,-0.09,0.09,0.63
24.588249921798706,0.69,-0.1,0.1,0.7
24.59998393058777,0.6,0.01,0.27,0.65
24.609779119491577,0.45,-0.1,0.31,0.55
24.619776964187622,0.46,0.01,0.26,0.52
24.630038022994995,0.55,0.05,0.32,0.63
24.639797925949097,0.78,-0.11,0.2,0.81
24.65020489692688,0.91,0.03,0.29,0.95
24.672533988952637,0.62,0.23,0.6,0.89
24.6742742061615,0.18,0.45,0.51,0.7
24.67843794822693,0.15,0.57,0.4,0.71
24.690291166305542,0.82,0.63,-0.11,1.03
24.700329065322876,1.85,0.72,0.13,1.98
24.71021604537964,2.31,1.95,0.19,3.02
24.7203950881958,4.31,3.54,1.09,5.68
24.730376958847046,4.99,1.61,2.71,5.9
24.74041509628296,2.49,2.65,1.38,3.88
24.75040102005005,0.76,3.84,0.13,3.91
24.77345609664917,3.3,3.8,0.79,5.09
24.776051998138428,7.07,4.61,0.25,8.44
24.77926206588745,5.23,6.33,-1.1,8.28
24.795871019363403,4.6,6.96,-0.16,8.34
24.800693035125732,7.12,7.39,1.03,10.31
24.81075119972229,10.51,7.28,2.45,13.01
24.82119107246399,12.81,5.96,3.75,14.61
24.830838918685913,13.19,6.2,5.45,15.56
24.840920209884644,12.75,2.9,4.94,13.97
24.850944995880127,7.95,-2.14,2.29,8.54
24.872364044189453,-0.33,13.76,-3.85,14.29
24.87737202644348,0.59,18.48,-6.74,19.67
24.87986707687378,7.5,7.13,-8.07,13.12
24.891573190689087,11.77,4.24,-5.6,13.7
24.901426076889038,15.91,2.84,-2.18,16.3
24.911455869674683,10.78,-3.52,-2.84,11.69
24.921632051467896,-1.99,1.52,-10.92,11.2
24.93141007423401,-5.42,4.91,-6.22,9.6
24.941744089126587,-0.97,7.0,3.28,7.79
24.951781034469604,6.25,0.23,6.95,9.34
24.974305868148804,10.42,-1.73,8.14,13.33
24.976078987121582,11.57,-1.86,5.46,12.92
24.98041319847107,11.11,-1.67,0.96,11.27
24.9960720539093,10.09,-1.74,-2.52,10.54
25.001971006393433,8.66,-0.53,-2.95,9.16
25.011901140213013,6.72,-0.14,-1.98,7.0
25.02231192588806,4.77,-0.41,0.95,4.88
25.03233313560486,3.21,-0.67,3.88,5.08
25.04253888130188,2.34,-0.86,5.08,5.65
25.052374124526978,2.1,-0.79,4.29,4.84
25.07521891593933,2.04,-0.38,1.93,2.83
25.078296899795532,2.29,-0.12,-0.14,2.29
25.08080005645752,2.81,0.02,-0.54,2.86
25.09635615348816,3.17,0.19,0.46,3.2
25.102349996566772,2.83,0.39,1.57,3.25
25.112455129623413,1.88,0.72,1.72,2.64
25.122810125350952,0.85,1.28,0.91,1.78
25.132723093032837,-0.11,1.95,-0.32,1.97
25.14277195930481,-0.45,2.54,-1.25,2.86
25.153109073638916,-0.81,3.21,-1.26,3.54
25.176368951797485,-1.68,3.74,-1.46,4.35
25.17952609062195,-2.75,4.36,-1.87,5.48
25.181390047073364,-4.1,5.15,-2.29,6.96
25.196649074554443,-5.46,5.71,-2.94,8.42
25.203304052352905,-6.52,6.21,-3.33,9.6
25.213258981704712,-7.51,6.61,-3.23,10.51
25.223239183425903,-8.18,6.75,-3.29,11.1
25.233524084091187,-8.41,7.08,-3.43,11.51
25.243510961532593,-8.29,7.14,-3.76,11.56
25.2535879611969,-8.21,6.04,-4.06,10.97
25.276485204696655,-9.54,3.22,-3.75,10.74
25.279104948043823,-13.58,0.73,-5.0,14.48
25.28187394142151,-18.29,-1.8,-4.74,18.97
25.29732918739319,-20.98,-3.06,-3.93,21.56
25.3021399974823,-20.55,-2.42,-3.37,20.96
25.313645124435425,-17.24,-2.11,-3.82,17.78
25.323708057403564,-13.62,-2.02,-5.22,14.72
25.33370614051819,-11.04,-1.73,-6.17,12.76
25.344150066375732,-9.41,-0.36,-5.97,11.14
25.353787183761597,5.9,23.08,-3.96,24.14
25.37677311897278,18.58,17.16,0.63,25.29
25.378512144088745,11.78,-14.88,-2.55,19.14
25.382482051849365,9.36,-16.16,-6.17,19.66
25.396548986434937,-3.21,-1.62,0.75,3.67
25.403943061828613,-18.63,-2.16,4.0,19.17
25.41422200202942,-21.19,6.46,0.71,22.16
25.42410707473755,-18.4,11.66,-3.25,22.02
25.43440890312195,-7.42,-0.46,1.42,7.56
25.444763898849487,-1.23,0.07,6.52,6.63
25.45497703552246,-0.97,-0.3,1.8,2.06
25.477419137954712,-1.88,-0.02,-2.85,3.41
25.47965908050537,-3.66,1.66,-4.92,6.35
25.4831600189209,-8.84,2.73,-7.12,11.67
25.495043992996216,-5.92,1.31,-4.99,7.85
25.504743099212646,-1.56,0.59,-0.32,1.69
25.51486086845398,-0.09,-0.24,1.57,1.59
25.525508165359497,-1.56,0.48,0.9,1.86
25.534913063049316,-3.17,0.69,-1.01,3.39
25.5453941822052,-3.26,0.81,-0.76,3.44
25.556185960769653,-2.04,0.36,0.14,2.07
25.580660104751587,-0.64,0.07,0.61,0.88
25.5849130153656,-0.01,-0.08,0.44,0.44
25.587300062179565,-0.25,0.07,0.17,0.31
25.593878984451294,-0.82,0.16,0.15,0.84
25.605802059173584,-0.84,-0.09,-0.14,0.85
25.61520504951477,-0.34,-0.05,-0.12,0.36
25.62561821937561,0.03,0.13,0.11,0.17
25.635310888290405,-0.01,-0.2,-0.31,0.36
25.645500898361206,0.01,-0.12,-0.43,0.44
25.656037092208862,0.13,-0.06,-0.46,0.48
25.676533937454224,0.26,0.05,-0.43,0.5
25.677890062332153,0.57,-0.45,-0.77,1.05
25.685575008392334,0.63,0.04,-0.28,0.69
25.695796012878418,0.66,-0.38,-0.19,0.78
25.705883026123047,0.46,-0.09,0.08,0.47
25.716206073760986,0.49,-0.16,-0.18,0.54
25.72638487815857,0.83,-0.23,-0.13,0.87
25.736016988754272,0.73,0.03,0.12,0.74
25.74633002281189,0.67,-0.23,0.26,0.75
25.75677514076233,0.45,-0.02,0.13,0.46
25.77918004989624,0.59,-0.04,0.34,0.68
25.782542943954468,0.66,-0.04,0.5,0.82
25.7848641872406,0.49,0.03,0.61,0.78
25.796178102493286,0.44,0.06,1.01,1.1
25.80654001235962,0.62,0.04,1.03,1.2
25.8164279460907,0.96,0.13,1.17,1.51
25.826462984085083,1.15,0.46,1.43,1.89
25.836517095565796,1.08,1.06,0.66,1.65
25.846397161483765,0.93,1.45,-0.08,1.72
25.857091188430786,1.39,1.66,-1.0,2.38
25.87616515159607,4.03,3.4,-0.45,5.29
25.87749218940735,6.17,2.43,1.73,6.85
25.884979009628296,2.79,2.14,1.69,3.9
25.896775007247925,0.85,3.35,1.61,3.81
25.90740990638733,2.49,3.73,1.11,4.62
25.9169819355011,5.98,4.16,1.33,7.4
25.927118062973022,5.72,5.77,-0.14,8.12
25.937172174453735,5.24,6.58,0.59,8.43
25.94722604751587,6.39,7.31,1.39,9.8
25.957931995391846,8.0,7.71,2.75,11.44
25.981101036071777,10.47,6.93,4.91,13.48
25.984377145767212,12.18,5.9,5.92,14.77
25.986119985580444,11.34,4.89,7.42,14.4
25.996047019958496,5.74,0.47,6.34,8.56
26.00796914100647,-2.64,10.49,-0.33,10.82
26.017621994018555,-1.7,19.76,-4.29,20.29
26.027721166610718,6.67,11.39,-5.62,14.34
26.038024187088013,12.15,7.07,-7.29,15.83
26.047872066497803,15.5,2.64,-4.76,16.42
26.05867314338684,4.72,1.21,-8.56,9.84
26.08196997642517,-4.61,6.78,-11.56,14.17
26.085355043411255,-1.41,5.56,-0.36,5.74
26.087027072906494,5.24,2.12,7.23,9.17
26.09665298461914,9.78,-0.12,8.0,12.63
26.108536958694458,12.4,-0.97,7.12,14.33
26.11889410018921,13.6,-1.11,4.41,14.34
26.128259897232056,13.15,-2.52,-1.18,13.44
26.138458013534546,12.28,-2.68,-2.33,12.78
26.14850902557373,11.31,-1.02,-0.71,11.37
26.159193992614746,9.43,-0.9,2.13,9.7
26.181802988052368,6.83,-0.9,4.52,8.23
26.183276891708374,4.62,-0.87,4.85,6.75
26.187062978744507,3.21,-0.68,3.83,5.04
26.198371171951294,2.68,-0.34,2.18,3.47
26.20919108390808,2.74,-0.07,1.06,2.93
26.2187340259552,2.59,0.09,0.53,2.64
26.22883105278015,2.12,0.31,0.86,2.3
26.23906111717224,1.48,0.44,1.72,2.31
26.248716115951538,0.66,0.53,2.09,2.25
26.25915002822876,-0.01,0.77,1.66,1.82
26.28274703025818,-0.3,1.08,0.66,1.3
26.284080028533936,-0.54,1.63,-0.35,1.75
26.28743815422058,-1.19,2.43,-1.18,2.95
26.299490213394165,-2.3,3.11,-1.96,4.33
26.309487104415894,-3.54,3.37,-2.43,5.45
26.319500207901,-4.64,3.7,-2.56,6.46
26.329369068145752,-5.11,4.4,-2.86,7.32
26.33980393409729,-5.47,5.37,-2.94,8.2
26.34966206550598,-6.45,6.24,-3.87,9.77
26.359761953353882,-8.26,7.1,-4.62,11.83
26.3834068775177,-9.91,7.42,-5.25,13.44
26.38564419746399,-10.91,7.36,-5.68,14.33
26.388023138046265,-11.3,6.8,-6.1,14.53
26.399770975112915,-11.51,4.6,-6.31,13.9
26.409960985183716,-11.96,1.31,-6.09,13.48
26.420016050338745,-14.08,-1.72,-5.12,15.08
26.429802179336548,-18.22,-2.66,-5.57,19.23
26.44011402130127,-20.47,-2.97,-5.52,21.4
26.4503390789032,-20.22,-1.85,-5.85,21.13
26.46039891242981,-17.27,-2.09,-7.19,18.82
26.48322319984436,-14.11,-2.12,-7.06,15.91
26.484637022018433,-2.71,14.4,-7.0,16.23
26.48878502845764,16.2,20.52,6.04,26.83
26.500988006591797,16.3,-2.54,3.69,16.9
26.510617971420288,16.16,-16.42,-6.57,23.95
26.520143032073975,3.56,-13.03,-6.95,15.19
26.530241012573242,-17.28,-3.79,-2.61,17.88
26.541034936904907,-20.8,2.55,5.73,21.72
26.551286935806274,-23.41,15.35,1.65,28.04
26.561172008514404,-17.19,5.61,-2.4,18.24
26.584049940109253,-2.71,-1.11,5.37,6.11
26.585922956466675,0.55,-0.18,2.04,2.12
26.588942050933838,-1.65,0.58,-6.66,6.88
26.601221084594727,-9.58,2.54,-10.77,14.63
26.610891103744507,-7.52,1.79,-6.62,10.17
26.621247053146362,-2.23,0.97,-0.93,2.6
26.631234884262085,0.37,-0.53,1.47,1.6
26.641754865646362,-0.81,0.14,1.49,1.7
26.65121603012085,-3.3,0.86,-1.01,3.55
26.662122011184692,-3.76,0.92,-1.7,4.22
26.687392950057983,-1.83,0.4,-0.32,1.9
26.69180417060852,0.18,-0.07,0.84,0.86
26.69406819343567,0.82,-0.36,0.71,1.14
26.700103044509888,0.1,-0.06,0.24,0.26
26.711652040481567,-0.82,0.14,-0.05,0.83
26.722213983535767,-0.93,0.02,0.09,0.93
26.73165488243103,-0.19,0.15,0.33,0.4
26.742143869400024,0.56,-0.39,-0.13,0.69
26.75185990333557,0.6,0.08,0.01,0.6
26.762139081954956,0.41,-0.29,-0.45,0.67
26.786978006362915,0.18,0.03,-0.38,0.42
26.791784048080444,0.33,-0.05,-0.75,0.82
26.794005155563354,0.65,-0.15,-0.77,1.01
26.800427198410034,0.51,-0.16,-0.51,0.73
26.81242609024048,0.11,0.02,-0.15,0.18
26.820703983306885,-0.08,0.03,0.27,0.28
26.83255696296692,-0.25,0.11,0.26,0.37
26.842355966567993,-0.17,0.06,0.18,0.25
26.85212802886963,-0.06,0.11,0.31,0.33
26.86237907409668,-0.01,0.07,0.17,0.18
26.886023998260498,0.13,-0.01,0.2,0.23
26.888010025024414,0.44,-0.09,0.2,0.49
26.89083504676819,0.84,0.02,0.44,0.94
26.902782201766968,1.15,0.08,0.6,1.29
26.91251492500305,1.22,0.03,0.75,1.43
26.923105001449585,0.79,0.43,0.9,1.27
26.93272304534912,1.12,0.48,0.54,1.33
26.943177938461304,1.93,1.07,0.59,2.28
26.952893018722534,3.01,2.0,0.73,3.68
26.96315312385559,5.59,3.88,1.55,6.97
26.98667001724243,6.23,2.41,2.44,7.11
26.989868879318237,4.31,2.42,2.34,5.46
26.991307020187378,2.25,3.59,1.84,4.61
27.00183415412903,2.03,3.71,2.28,4.8
27.013451099395752,5.7,3.53,3.5,7.56
27.02308487892151,5.92,4.33,2.01,7.6
27.033173084259033,4.11,5.08,1.72,6.75
27.043682098388672,4.84,6.61,1.45,8.31
27.053585052490234,6.39,8.63,1.73,10.87
27.06372094154358,8.76,9.96,4.04,13.86
27.088175058364868,11.72,9.54,8.87,17.52
27.092427968978882,11.13,3.54,11.22,16.19
27.093326091766357,4.41,-2.07,7.96,9.33
27.102365016937256,0.24,15.83,2.66,16.05
27.11408305168152,5.09,19.67,-0.74,20.33
27.124033212661743,11.09,8.26,-8.16,16.05
27.133803129196167,16.71,6.26,-15.35,23.53
27.144252061843872,20.74,6.54,-10.91,24.32
27.15451693534851,18.65,-0.06,-7.41,20.06
27.164252042770386,2.85,3.88,-11.38,12.35
27.188611030578613,-8.78,9.04,-8.7,15.31
