time,ax,ay,az,atotal
0.013223886489868164,1.31,-0.3,4.9,5.08
0.01751995086669922,0.95,-0.51,4.61,4.73
0.01848602294921875,1.07,-0.63,4.15,4.33
0.03553199768066406,1.3,-0.6,4.14,4.38
0.04010295867919922,1.57,-0.63,4.31,4.63
0.04986286163330078,1.83,-0.84,4.0,4.47
0.05124688148498535,1.84,-1.01,3.42,4.01
0.0691828727722168,1.52,-0.91,2.92,3.41
0.07278776168823242,0.97,-0.65,2.23,2.51
0.08519792556762695,0.32,-0.53,1.79,1.89
0.08932089805603027,-0.3,-0.6,1.44,1.58
0.10177373886108398,-0.76,-0.74,0.85,1.35
0.10552191734313965,-1.22,-0.85,0.4,1.53
0.11902093887329102,-1.75,-1.03,0.28,2.04
0.1284489631652832,-1.96,-1.08,0.23,2.24
0.13172483444213867,-2.01,-0.85,-0.42,2.22
0.15261483192443848,-1.76,-0.24,-1.6,2.39
0.15724897384643555,-1.21,0.74,-3.0,3.31
0.1681838035583496,-0.99,1.34,-4.14,4.46
0.17243003845214844,-1.34,2.03,-4.21,4.86
0.1841268539428711,-1.61,2.64,-3.97,5.03
0.18779587745666504,-1.65,2.85,-3.66,4.92
0.20228791236877441,-1.52,2.88,-2.94,4.38
0.20635986328125,-1.33,2.71,-2.25,3.76
0.220991849899292,-1.14,2.36,-1.57,3.05
0.2224578857421875,-0.96,1.96,-0.87,2.34
0.23243474960327148,-0.83,1.46,-0.23,1.69
0.23374271392822266,-0.72,0.94,0.31,1.22
0.25136494636535645,-0.7,0.61,0.77,1.2
0.25539493560791016,-0.76,0.33,1.06,1.34
0.2674698829650879,-0.66,0.1,1.27,1.43
0.27121400833129883,-0.44,-0.1,1.14,1.22
0.28392791748046875,-0.14,-0.11,1.07,1.08
0.28766489028930664,0.31,-0.18,1.04,1.1
0.3022298812866211,0.74,0.04,0.22,0.77
0.3031909465789795,1.03,0.43,-1.07,1.54
0.31536388397216797,1.3,0.68,-2.27,2.7
0.31675195693969727,1.46,0.82,-3.18,3.59
0.33405494689941406,1.55,0.95,-3.94,4.33
0.33779096603393555,1.62,0.98,-4.37,4.76
0.3486309051513672,1.61,0.97,-4.52,4.89
0.3526740074157715,1.51,1.08,-4.45,4.82
0.36482787132263184,1.47,1.23,-4.21,4.62
0.36882686614990234,1.52,1.1,-3.73,4.17
0.3873929977416992,1.74,0.63,-2.6,3.19
0.3883228302001953,2.29,0.15,-1.44,2.7
0.40043187141418457,3.03,-0.41,-0.5,3.09
0.403857946395874,3.65,-0.8,0.31,3.74
0.41626405715942383,3.74,-0.7,1.04,3.94
0.42002296447753906,3.47,-0.38,1.75,3.9
0.4298899173736572,2.89,-0.04,2.14,3.59
0.4313850402832031,1.62,0.43,2.17,2.74
0.44871997833251953,0.07,0.86,2.45,2.59
0.452455997467041,-1.12,0.94,2.45,2.85
0.46630287170410156,-1.66,0.71,2.06,2.73
0.4672837257385254,-1.62,0.47,1.41,2.19
0.4830288887023926,-1.34,-0.02,0.91,1.61
0.488131046295166,-1.2,-0.73,1.03,1.74
0.4964427947998047,-1.17,-1.3,1.27,2.16
0.4977419376373291,-0.92,-1.96,1.34,2.54
0.5149829387664795,-0.39,-2.71,1.48,3.11
0.518826961517334,0.0,-3.31,1.89,3.81
0.5320818424224854,0.41,-3.6,2.24,4.25
0.5358648300170898,0.6,-3.58,2.6,4.46
0.5496177673339844,0.92,-3.23,2.66,4.28
0.551041841506958,1.92,-2.63,2.44,4.06
0.5674698352813721,1.93,-1.42,0.07,2.39
0.5709819793701172,0.99,0.01,-4.35,4.46
0.5819408893585205,0.51,1.8,-6.49,6.75
0.5850298404693604,0.13,3.09,-6.1,6.83
0.5982449054718018,-0.27,3.21,-4.35,5.41
0.601691722869873,-0.59,2.88,-2.42,3.8
0.6146607398986816,-0.75,2.23,-0.69,2.45
0.6179468631744385,-0.8,1.38,1.21,2.0
0.6368448734283447,-0.97,0.77,2.83,3.08
0.6376979351043701,-1.62,0.63,3.85,4.22
0.6499767303466797,-2.89,0.36,4.14,5.06
0.6530017852783203,-3.98,0.02,3.45,5.26
0.6654858589172363,-4.22,-0.15,2.75,5.03
0.6686367988586426,-4.8,-0.03,1.93,5.17
0.6812658309936523,-5.2,0.49,1.48,5.42
0.6846349239349365,-3.8,1.21,2.35,4.62
0.6977689266204834,-2.74,1.06,2.76,4.03
0.7017397880554199,-1.61,0.69,1.98,2.64
0.7162158489227295,-1.1,0.23,0.97,1.48
0.7170987129211426,-1.1,0.38,0.55,1.28
0.7342467308044434,-1.25,0.86,0.08,1.51
0.7376708984375,-1.46,1.15,-0.23,1.87
0.7486329078674316,-1.5,1.5,-0.5,2.17
0.7506227493286133,-1.29,2.08,-1.33,2.78
0.7647218704223633,-0.77,2.64,-2.06,3.43
0.7678217887878418,-0.01,3.15,-2.65,4.11
0.7824099063873291,1.33,3.7,-2.72,4.78
0.7850017547607422,2.52,3.54,-2.63,5.07
0.8045718669891357,3.47,2.79,-3.2,5.48
0.8057117462158203,4.01,1.58,-5.03,6.62
0.8137328624725342,3.24,0.45,-6.05,6.87
0.8145668506622314,1.97,-0.43,-4.81,5.21
0.8337738513946533,0.96,-0.79,-4.56,4.72
0.8374018669128418,-0.34,0.62,-6.37,6.4
0.8477089405059814,-1.64,3.78,-6.54,7.72
0.8512539863586426,-0.86,4.4,-4.53,6.37
0.8652439117431641,1.42,1.68,-2.17,3.08
0.8687729835510254,3.77,-2.12,0.8,4.39
0.8862748146057129,4.26,-4.84,3.26,7.22
0.8871738910675049,3.31,-5.99,3.81,7.83
0.903317928314209,3.54,-5.99,3.04,7.59
0.9061150550842285,3.72,-4.81,2.65,6.63
0.9151909351348877,2.72,-2.51,3.25,4.92
0.9185068607330322,2.0,-0.53,2.89,3.55
0.9324889183044434,2.69,0.12,1.33,3.0
0.9355418682098389,3.37,-0.48,0.71,3.47
0.9486789703369141,3.14,-1.46,1.58,3.8
0.9522058963775635,2.55,-1.74,2.62,4.04
0.9714827537536621,1.82,-1.82,3.46,4.31
0.9724359512329102,1.37,-1.7,3.76,4.34
0.9802308082580566,1.42,-1.48,3.43,3.99
0.9814748764038086,1.5,-1.03,3.21,3.68
0.9991629123687744,1.35,-0.56,3.61,3.89
1.002734899520874,1.15,-0.22,3.99,4.15
1.0161800384521484,0.99,0.09,4.32,4.43
1.019683837890625,0.75,0.35,4.5,4.57
1.0313730239868164,0.55,0.24,4.13,4.17
1.0350759029388428,0.36,-0.15,3.77,3.79
1.049551010131836,0.09,-0.64,3.44,3.5
1.0510120391845703,-0.39,-1.11,2.87,3.1
1.0692918300628662,-0.84,-1.01,2.38,2.71
1.073287010192871,-0.95,-0.92,1.81,2.24
1.0796599388122559,-1.21,-1.12,1.19,2.03
1.0808019638061523,-1.72,-1.61,0.7,2.45
1.0978717803955078,-2.21,-1.42,0.44,2.66
1.1016697883605957,-2.63,-0.9,-0.04,2.78
1.1150097846984863,-2.64,-0.61,-0.75,2.81
1.1188640594482422,-2.53,-0.2,-1.46,2.92
1.1362688541412354,-2.43,0.19,-1.84,3.05
1.137610912322998,-2.31,0.52,-1.88,3.02
1.1469979286193848,-2.19,1.19,-1.78,3.06
1.1482858657836914,-2.12,1.92,-1.75,3.35
1.1674818992614746,-2.08,2.48,-1.83,3.71
1.171414852142334,-2.1,2.67,-1.94,3.91
1.1815838813781738,-2.15,2.61,-2.02,3.93
1.186028003692627,-2.03,2.28,-1.77,3.52
1.197828769683838,-1.69,1.74,-1.33,2.76
1.201343059539795,-1.29,1.47,-0.71,2.08
1.221426010131836,-0.78,1.31,-0.2,1.53
1.2227249145507812,-0.21,1.09,0.17,1.12
1.2334489822387695,0.36,0.95,0.46,1.11
1.237285852432251,0.92,0.85,0.65,1.41
1.2465929985046387,1.52,0.81,0.41,1.77
1.2478437423706055,1.94,0.69,-0.2,2.06
1.266685962677002,2.35,0.56,-1.06,2.63
1.2701928615570068,2.97,0.13,-2.47,3.86
1.2819080352783203,3.33,0.01,-3.4,4.75
1.2860949039459229,3.31,0.22,-3.76,5.01
1.2998199462890625,3.06,0.35,-3.87,4.94
1.3011958599090576,2.88,0.34,-4.14,5.05
1.3182697296142578,2.92,0.16,-4.86,5.67
1.3217768669128418,3.06,-0.27,-5.41,6.22
1.331873893737793,3.7,-0.45,-4.71,6.0
1.3352937698364258,4.36,-1.35,-3.97,6.04
1.348252773284912,4.1,-2.03,-3.35,5.67
1.3518857955932617,3.29,-1.6,-2.44,4.39
1.364943027496338,2.27,-0.67,-1.6,2.85
1.3685417175292969,1.27,-0.15,-0.92,1.57
1.381908893585205,0.53,-1.61,-0.92,1.92
1.3852849006652832,0.47,-1.55,-1.01,1.9
1.3978798389434814,0.28,-1.43,-1.04,1.79
1.4013457298278809,-0.02,-1.17,-1.04,1.56
1.415010929107666,-0.34,-0.95,-0.86,1.32
1.4185779094696045,-0.6,-0.7,-0.67,1.13
1.4311738014221191,-0.85,-0.42,-0.51,1.07
1.434661865234375,-1.06,-0.13,-0.11,1.07
1.4492418766021729,-1.07,0.11,0.1,1.08
1.4501848220825195,-0.86,0.42,-0.01,0.95
1.4689750671386719,-0.56,0.68,-0.22,0.9
1.4714949131011963,-0.23,0.73,-0.6,0.97
1.479604721069336,0.12,0.56,-1.08,1.22
1.4809718132019043,0.37,0.52,-1.58,1.7
1.4991579055786133,0.38,0.45,-2.08,2.16
1.502856731414795,0.34,0.32,-2.19,2.23
1.5146708488464355,0.05,0.34,-2.33,2.35
1.518129825592041,-0.07,0.25,-2.23,2.24
1.535003900527954,0.13,-0.1,-2.27,2.27
1.535876750946045,0.56,-0.7,-2.31,2.47
1.5535778999328613,0.8,-1.06,-1.96,2.36
1.557480812072754,0.87,-1.24,-1.4,2.06
1.5629708766937256,0.68,-1.07,-0.88,1.54
1.5643339157104492,0.24,-0.49,-0.73,0.91
1.581474781036377,-0.39,0.5,-0.57,0.85
1.585399866104126,-1.22,1.64,-0.06,2.04
1.599153995513916,-1.91,2.64,0.32,3.27
1.6025910377502441,-2.0,3.13,0.46,3.74
1.616175889968872,-1.61,2.93,0.42,3.36
1.6173028945922852,-1.27,2.42,0.59,2.79
1.6360950469970703,-1.11,1.81,0.91,2.31
1.6397199630737305,-1.08,1.21,1.11,1.96
1.6482038497924805,-1.2,0.71,1.4,1.97
1.651460886001587,-1.44,0.3,1.66,2.21
1.6659259796142578,-1.55,-0.08,1.66,2.27
1.6691439151763916,-1.54,-0.62,1.51,2.24
1.6807959079742432,-1.67,-0.86,1.15,2.2
1.6845407485961914,-1.57,-0.58,1.03,1.96
1.7051589488983154,-1.43,-0.07,0.82,1.64
1.7061328887939453,-1.26,0.48,0.36,1.39
1.7139809131622314,-1.12,0.79,0.09,1.37
1.7153198719024658,-1.09,0.88,0.01,1.4
1.7326948642730713,-1.0,0.77,0.15,1.27
1.7363848686218262,-0.75,0.58,0.48,1.06
1.7496118545532227,-0.37,0.55,0.84,1.07
1.7534399032592773,0.18,0.67,1.2,1.38
1.7650089263916016,0.74,0.92,1.58,1.97
1.7689399719238281,1.2,0.87,1.7,2.25
1.785740852355957,1.56,0.99,1.72,2.52
1.786874771118164,1.79,1.29,1.72,2.79
1.7974269390106201,2.14,1.66,1.77,3.23
1.798192024230957,2.14,1.88,2.29,3.65
1.8153119087219238,1.87,1.41,2.63,3.52
1.8192520141601562,1.65,0.41,2.33,2.88
1.8309848308563232,1.58,-0.47,1.57,2.27
1.8348050117492676,1.52,-1.08,0.65,1.97
1.8483588695526123,1.59,-1.54,0.12,2.21
1.8524658679962158,1.72,-1.92,-0.22,2.58
1.8698968887329102,1.96,-2.33,-0.38,3.06
1.870741844177246,2.07,-2.56,-0.67,3.35
1.8851969242095947,2.09,-2.56,-1.05,3.46
1.8875138759613037,2.0,-2.42,-1.56,3.5
1.8987770080566406,1.83,-2.19,-2.12,3.55
1.9022760391235352,1.65,-1.88,-2.69,3.67
1.914844036102295,1.44,-1.56,-3.23,3.86
1.9185528755187988,1.27,-1.37,-3.38,3.86
1.9314370155334473,1.1,-1.36,-3.03,3.49
1.9349479675292969,0.68,-1.47,-2.87,3.29
1.949413776397705,-0.07,-1.18,-3.15,3.36
1.9508247375488281,-0.48,-0.81,-2.87,3.02
1.9662058353424072,-0.76,-0.55,-2.46,2.63
1.9702239036560059,-0.86,-0.3,-2.08,2.27
1.982029914855957,-0.97,-0.1,-1.83,2.07
1.9849069118499756,-1.01,-0.03,-1.77,2.03
1.999560832977295,-0.87,-0.02,-1.71,1.91
2.001912832260132,-0.65,0.07,-1.61,1.73
2.0153889656066895,-0.48,0.25,-1.68,1.76
2.01845383644104,-0.36,0.46,-1.79,1.88
2.037660837173462,-0.28,0.69,-1.85,1.99
2.0388970375061035,-0.28,0.94,-1.87,2.11
2.051269054412842,-0.31,1.23,-1.89,2.27
2.0549209117889404,-0.34,1.48,-1.81,2.36
2.063957929611206,-0.46,1.64,-1.69,2.39
2.065134048461914,-0.43,1.61,-1.4,2.17
2.08243989944458,-0.29,1.57,-1.13,1.95
2.086176872253418,0.0,1.43,-1.03,1.76
2.0998687744140625,0.25,1.27,-0.9,1.57
2.103559970855713,0.41,1.29,-0.71,1.52
2.1203317642211914,0.47,1.31,-0.32,1.42
2.1216318607330322,0.42,1.26,0.23,1.34
2.1334128379821777,0.37,1.26,0.77,1.52
2.136414051055908,0.23,1.47,0.68,1.63
2.1504650115966797,0.34,1.51,0.65,1.67
2.153536796569824,0.22,1.6,0.75,1.78
2.164468765258789,-0.03,1.68,0.85,1.88
2.1663248538970947,-0.33,1.67,1.16,2.05
2.1831259727478027,-0.63,1.5,1.4,2.14
2.1848859786987305,-0.69,1.13,1.38,1.91
2.18947172164917,-0.48,0.65,1.45,1.65
2.1936559677124023,-0.13,0.16,1.75,1.76
2.195107936859131,0.13,-0.02,2.12,2.12
2.2201290130615234,0.12,-0.03,1.94,1.94
2.221798896789551,0.11,-0.09,1.97,1.97
2.22318172454834,-0.11,0.01,2.1,2.1
2.2292890548706055,-0.32,0.33,2.25,2.29
2.2303237915039062,-0.31,0.48,2.27,2.34
2.2453269958496094,-0.35,0.27,2.36,2.4
2.246325969696045,-0.19,-0.26,2.88,2.89
2.268861770629883,0.18,-0.81,3.83,3.91
2.2694778442382812,0.31,-0.67,3.38,3.45
2.28062105178833,0.84,-0.74,2.22,2.48
2.2827258110046387,1.03,-0.76,1.6,2.04
2.309790849685669,0.81,-0.44,1.1,1.43
2.3111579418182373,0.55,-0.14,0.35,0.66
2.313889980316162,0.29,-0.09,-0.09,0.31
2.3167288303375244,0.14,-0.36,-0.26,0.46
2.3321948051452637,0.05,-0.86,-0.4,0.94
2.3342080116271973,-0.19,-1.27,-0.49,1.37
2.3557169437408447,-0.35,-1.41,-0.49,1.53
2.3581700325012207,-0.38,-1.36,-0.53,1.5
2.3654470443725586,-0.43,-1.01,-0.7,1.3
2.3681418895721436,-0.45,-0.59,-0.68,1.0
2.382746934890747,-0.4,-0.4,-0.59,0.81
2.3856587409973145,-0.44,-0.26,-0.74,0.89
2.3988518714904785,-0.36,-0.4,-0.72,0.89
2.4013309478759766,-0.41,-0.7,-0.69,1.06
2.4151298999786377,-0.63,-0.79,-1.04,1.45
2.4174418449401855,-0.87,-0.5,-1.47,1.77
2.4387288093566895,-1.0,-0.28,-1.62,1.92
2.441645860671997,-0.99,-0.24,-1.66,1.94
2.449091911315918,-0.67,-0.38,-1.36,1.56
2.451709747314453,-0.45,-0.37,-1.6,1.7
2.4662699699401855,-0.1,-0.75,-1.29,1.49
2.4690747261047363,0.07,-0.7,-0.89,1.13
2.482545852661133,-0.07,-0.39,-0.95,1.02
2.485116958618164,-0.34,-0.17,-0.87,0.94
2.4985198974609375,-0.86,-0.01,-0.77,1.15
2.5013668537139893,-1.34,0.08,-0.78,1.55
2.520096778869629,-1.49,0.02,-0.83,1.7
2.5225539207458496,-1.33,-0.06,-0.95,1.63
2.534169912338257,-1.21,0.05,-1.08,1.62
2.5370678901672363,-0.88,0.32,-0.99,1.36
2.549722909927368,-0.57,0.68,-1.31,1.58
2.552367925643921,-0.22,1.04,-1.7,2.0
2.565441846847534,-0.01,1.25,-1.71,2.11
2.56825590133667,0.07,1.19,-1.29,1.75
2.58492374420166,-0.12,0.86,-0.67,1.09
2.589688777923584,-0.38,0.71,-0.36,0.88
2.6056368350982666,-0.44,0.69,-0.16,0.83
2.6079230308532715,-0.5,0.64,0.29,0.86
2.6151227951049805,-0.3,0.87,0.17,0.93
2.616215944290161,-0.04,1.08,0.25,1.1
2.6345808506011963,0.0,0.94,1.08,1.43
2.6383190155029297,0.05,0.62,1.82,1.92
2.6495678424835205,0.23,0.6,2.11,2.2
2.6533968448638916,0.3,0.87,2.24,2.42
2.6547799110412598,0.4,1.03,2.19,2.45
2.6582748889923096,0.58,0.95,1.7,2.03
2.6699490547180176,0.72,1.2,1.19,1.83
2.671271800994873,0.97,1.4,1.14,2.04
2.6822218894958496,1.16,1.51,1.26,2.28
2.683084011077881,1.33,1.49,1.67,2.6
2.6989998817443848,1.55,1.07,2.1,2.82
2.701572895050049,1.77,0.22,2.28,2.89
2.7142908573150635,1.88,-0.46,2.45,3.12
2.717836856842041,1.96,-1.02,2.97,3.7
2.731268882751465,2.0,-1.61,3.33,4.2
2.7347359657287598,1.92,-2.09,3.07,4.18
2.7479047775268555,1.95,-2.47,2.41,3.96
2.748945713043213,2.19,-2.68,1.51,3.77
2.763347864151001,2.54,-2.71,0.56,3.75
2.764193058013916,2.87,-2.64,-0.25,3.9
2.7794337272644043,3.04,-2.31,-1.24,4.01
2.7803149223327637,2.97,-1.84,-2.38,4.22
2.7984368801116943,3.15,-1.4,-2.62,4.32
2.802426815032959,3.05,-0.94,-2.01,3.77
2.8149378299713135,2.46,-0.89,-1.65,3.09
2.8186159133911133,1.54,-0.45,-1.97,2.54
2.8315658569335938,1.07,0.09,-1.68,1.99
2.8331968784332275,0.77,0.41,-1.26,1.53
2.84985089302063,0.65,0.4,-1.3,1.5
2.8538050651550293,0.52,0.31,-1.65,1.75
2.869189739227295,0.28,0.42,-1.98,2.04
2.8702077865600586,0.09,0.42,-2.17,2.21
2.8709897994995117,-0.22,0.2,-2.19,2.21
2.8715479373931885,-0.51,-0.17,-2.14,2.2
2.8729987144470215,-0.6,-0.63,-2.35,2.5
2.882722854614258,-0.39,-1.08,-2.57,2.81
2.890101909637451,0.17,-1.07,-2.7,2.9
2.896751880645752,0.43,-0.54,-2.86,2.94
2.897634983062744,0.53,-0.03,-3.16,3.2
2.916506767272949,0.66,0.41,-3.27,3.36
2.920376777648926,0.64,0.65,-3.43,3.54
2.928950786590576,0.68,0.7,-3.35,3.48
2.9301369190216064,0.74,0.72,-3.28,3.43
2.948178768157959,0.7,0.79,-3.11,3.28
2.9519200325012207,0.48,1.33,-3.13,3.43
2.965289831161499,0.24,2.09,-2.8,3.5
2.9740328788757324,0.24,2.46,-2.28,3.36
2.980133056640625,0.52,2.37,-1.56,2.88
2.9814019203186035,0.69,2.23,-0.86,2.48
2.998957872390747,0.65,2.12,-0.66,2.31
3.0025930404663086,0.52,1.85,-0.37,1.95
3.015669822692871,0.36,1.73,0.6,1.86
3.0195670127868652,-0.14,1.54,0.99,1.83
3.0304269790649414,-0.45,1.64,1.08,2.01
3.0316989421844482,-0.45,1.49,1.14,1.92
3.0481529235839844,-0.41,1.17,1.12,1.67
3.0608620643615723,-0.19,0.93,1.23,1.55
3.062199831008911,0.25,0.71,1.28,1.48
3.086453914642334,0.57,0.56,1.33,1.55
3.0903210639953613,0.71,0.32,1.36,1.56
3.0983099937438965,0.7,-0.1,1.55,1.7
3.1016478538513184,0.53,-0.41,1.68,1.8
3.1148529052734375,0.5,-0.39,1.95,2.05
3.118384838104248,0.45,0.17,2.44,2.48
3.1312248706817627,0.05,0.55,3.12,3.16
3.135180950164795,-0.27,0.85,3.47,3.58
3.1488289833068848,-0.26,1.22,3.07,3.31
3.1502349376678467,0.1,1.55,2.62,3.04
3.168177843093872,0.26,1.88,2.62,3.23
3.1715970039367676,0.17,1.89,2.88,3.44
3.179409980773926,0.14,0.82,3.42,3.51
3.1806640625,-0.11,-0.3,3.5,3.51
3.198178768157959,-0.35,-0.7,3.51,3.59
3.2019519805908203,-0.41,-0.62,3.32,3.4
3.216714859008789,-0.24,-0.43,2.78,2.82
3.2206308841705322,0.16,-0.38,2.11,2.14
3.2369608879089355,0.6,-0.35,1.43,1.58
3.2382049560546875,0.88,-0.29,0.72,1.17
3.2476940155029297,0.94,-0.31,0.14,0.99
3.2484679222106934,0.84,-0.43,-0.31,0.99
3.2682089805603027,0.57,-0.61,-0.69,1.08
3.2724528312683105,0.12,-0.82,-0.89,1.21
3.2815299034118652,-0.38,-0.94,-0.85,1.32
3.284989833831787,-0.83,-1.02,-0.68,1.48
3.2990548610687256,-1.3,-1.11,-0.46,1.77
3.302238941192627,-1.71,-1.13,-0.23,2.06
3.3215129375457764,-2.03,-1.07,0.02,2.29
3.3227248191833496,-2.19,-0.83,0.25,2.35
3.330613851547241,-2.06,-0.35,0.22,2.1
3.3317389488220215,-1.68,0.09,0.0,1.68
3.350728988647461,-1.19,0.27,-0.41,1.28
3.3548288345336914,-0.93,0.29,-0.98,1.38
3.3565430641174316,-0.67,0.42,-1.44,1.64
3.3625268936157227,-0.49,0.57,-1.61,1.77
3.363825798034668,-0.54,0.67,-1.82,2.01
3.3819358348846436,-0.69,0.6,-1.99,2.19
3.3904967308044434,-0.86,0.37,-1.87,2.09
3.3963658809661865,-0.96,0.24,-1.77,2.02
3.3972320556640625,-1.0,0.15,-1.67,1.95
3.4155759811401367,-0.95,0.03,-1.63,1.88
3.418282985687256,-0.79,-0.06,-1.64,1.82
3.4316399097442627,-0.62,-0.08,-1.57,1.68
3.4345498085021973,-0.49,-0.13,-1.41,1.49
3.448068857192993,-0.43,-0.21,-1.12,1.21
3.4514989852905273,-0.46,-0.2,-0.75,0.9
3.466601848602295,-0.4,-0.16,-0.4,0.58
3.473879814147949,-0.25,-0.13,-0.04,0.28
3.475493907928467,-0.23,-0.22,-0.03,0.31
3.4768879413604736,-0.13,-0.39,0.1,0.42
3.4777069091796875,0.17,-0.29,0.28,0.43
3.498486042022705,0.49,0.03,0.29,0.57
3.4997849464416504,0.78,0.0,-0.05,0.78
3.5147809982299805,0.67,-0.92,0.17,1.15
3.518488883972168,0.49,-0.92,0.37,1.1
3.5311999320983887,0.52,-0.72,0.43,0.98
3.534843921661377,0.73,-0.12,0.7,1.01
3.548658847808838,0.76,-0.46,0.17,0.9
3.550092935562134,0.57,-0.35,-0.51,0.84
3.5692808628082275,0.28,0.27,-0.63,0.74
3.572309970855713,0.19,0.85,-0.5,1.0
3.579537868499756,0.12,1.39,-0.49,1.47
3.580836772918701,-0.05,1.87,-0.42,1.91
3.5993337631225586,-0.27,2.19,-0.08,2.2
3.603109836578369,-0.43,2.25,0.7,2.39
3.614677906036377,-0.71,2.36,1.06,2.68
3.6184988021850586,-0.84,2.32,1.53,2.9
3.6330158710479736,-0.31,1.45,2.42,2.83
3.634462833404541,0.24,0.82,2.78,2.9
3.651014804840088,0.8,0.51,2.99,3.13
3.6543068885803223,1.31,0.09,3.09,3.35
3.6660079956054688,1.62,-0.32,3.02,3.44
3.6699090003967285,1.61,-0.98,2.38,3.03
3.680830955505371,1.59,-1.59,1.13,2.51
3.6834659576416016,1.76,-2.11,0.01,2.74
3.699504852294922,1.98,-2.32,-1.0,3.2
3.7032179832458496,2.24,-2.43,-1.88,3.8
3.718780040740967,1.81,-2.45,-3.97,5.0
3.7196507453918457,1.92,-2.55,-2.75,4.21
3.7328529357910156,2.1,-2.59,-0.98,3.47
3.736069917678833,2.03,-2.44,-0.41,3.2
3.750746726989746,2.04,-2.39,-0.56,3.19
3.7545969486236572,2.09,-2.42,-0.63,3.25
3.7644710540771484,1.9,-2.2,-0.9,3.04
3.768326759338379,1.64,-1.76,-0.99,2.6
3.781268835067749,1.36,-1.17,-0.93,2.02
3.7848620414733887,1.05,-0.52,-0.97,1.52
3.802717924118042,0.38,0.29,-1.28,1.36
3.8040900230407715,-0.42,1.01,-1.73,2.04
3.813544750213623,-0.95,1.4,-1.98,2.6
3.8143808841705322,-1.01,0.71,-1.56,1.98
3.8327159881591797,-0.95,-0.12,-1.1,1.45
3.83634090423584,-0.9,-0.08,-0.98,1.33
3.8498568534851074,-0.85,0.01,-1.12,1.4
3.8538098335266113,-0.78,0.14,-1.43,1.63
3.862017869949341,-0.8,0.21,-1.61,1.81
3.862849712371826,-0.91,0.18,-1.81,2.03
3.8908698558807373,-0.97,0.11,-2.16,2.37
3.893444061279297,-0.88,0.12,-2.51,2.66
3.8965818881988525,-0.66,0.29,-2.85,2.93
3.9163880348205566,-0.5,0.74,-3.14,3.26
3.919766902923584,-0.39,1.13,-3.15,3.36
3.932203769683838,-0.19,1.35,-2.46,2.81
3.9358530044555664,0.0,1.54,-1.83,2.39
3.9483869075775146,0.21,1.76,-1.42,2.27
3.9526238441467285,0.3,1.96,-1.4,2.42
3.964210033416748,0.3,1.96,-1.26,2.34
3.971799850463867,0.41,1.83,-1.13,2.18
3.9810290336608887,0.43,1.38,-1.04,1.78
3.9818918704986572,0.49,0.99,-0.9,1.42
3.9986157417297363,0.68,0.83,-0.49,1.17
4.0024189949035645,0.7,1.84,-0.42,2.01
4.015995025634766,0.92,2.77,0.05,2.91
4.018086910247803,1.35,2.8,0.22,3.11
4.032285928726196,1.71,2.26,-0.52,2.88
4.03490686416626,1.68,1.75,0.61,2.5
4.048094749450684,1.1,1.37,1.3,2.18
4.05640983581543,0.79,1.13,1.23,1.84
4.063529014587402,0.77,1.03,1.28,1.81
4.064388751983643,0.62,1.05,1.88,2.24
4.083563804626465,0.42,1.06,2.57,2.81
4.087167739868164,0.16,1.29,2.87,3.15
4.0984649658203125,-0.06,1.74,2.71,3.22
4.102439880371094,-0.1,2.01,2.67,3.34
4.114607810974121,-0.05,1.79,2.94,3.44
4.118326902389526,-0.16,1.1,3.37,3.54
4.132504940032959,-0.17,0.36,4.13,4.14
4.142449855804443,-0.29,-0.35,4.73,4.75
4.146886825561523,-0.51,-0.84,4.61,4.71
4.147761821746826,-0.86,-1.14,3.79,4.05
4.165392875671387,-1.09,-1.31,3.37,3.77
4.168233871459961,-1.24,-1.22,3.21,3.65
4.183017730712891,-1.33,-1.03,2.78,3.24
4.185318946838379,-1.18,-0.83,1.86,2.35
4.197628021240234,-0.91,-0.81,0.73,1.42
4.201380729675293,-0.83,-0.8,-0.12,1.15
4.214508056640625,-0.86,-0.66,-0.51,1.19
4.2232279777526855,-1.05,-0.61,-0.63,1.36
4.230203866958618,-1.34,-0.74,-0.62,1.65
4.231043815612793,-1.62,-1.02,-0.47,1.97
4.248757839202881,-1.91,-1.25,-0.23,2.29
4.252323865890503,-2.13,-1.36,-0.05,2.52
4.26456093788147,-2.2,-1.36,-0.06,2.58
4.268219947814941,-2.17,-1.18,-0.29,2.48
4.281479835510254,-1.97,-0.93,-0.59,2.25
4.285151958465576,-1.66,-0.74,-0.84,2.0
4.297984838485718,-1.34,-0.56,-1.16,1.85
4.308992862701416,-0.97,-0.46,-1.63,1.95
4.3131489753723145,-0.6,-0.39,-2.03,2.15
4.313999891281128,-0.31,-0.29,-2.38,2.41
4.3363800048828125,-0.34,-0.09,-2.96,2.98
4.339809894561768,0.12,-0.39,-2.59,2.62
4.347970962524414,-0.07,-0.07,-2.73,2.73
4.35108494758606,-0.31,0.06,-2.65,2.66
4.364405870437622,-0.49,-0.01,-2.54,2.58
4.3678648471832275,-0.66,-0.02,-2.28,2.37
4.381078720092773,-0.81,0.08,-1.98,2.14
4.389713764190674,-0.97,0.2,-1.72,1.98
4.3971638679504395,-1.08,0.24,-1.47,1.83
4.397981882095337,-1.11,0.24,-1.27,1.7
4.415616989135742,-1.06,0.3,-1.12,1.57
4.41871976852417,-0.9,0.37,-0.96,1.36
4.432637929916382,-0.7,0.44,-0.79,1.14
4.436309814453125,-0.53,0.55,-0.66,1.0
4.4480509757995605,-0.41,0.69,-0.56,0.97
4.451812744140625,-0.41,0.75,-0.32,0.91
4.4639599323272705,-0.5,0.79,0.05,0.93
4.474123954772949,-0.62,0.93,0.36,1.17
4.480438947677612,-0.65,1.07,0.61,1.39
4.481365919113159,-0.62,1.12,0.98,1.61
4.498791933059692,-0.6,1.03,1.57,1.97
4.5029988288879395,-0.66,1.04,1.62,2.03
4.514628887176514,-0.5,0.92,1.4,1.74
4.5170440673828125,-0.15,0.72,1.32,1.51
4.533488750457764,0.3,0.84,1.2,1.49
4.537647724151611,0.75,1.08,1.02,1.66
4.548111915588379,1.11,1.21,0.97,1.9
4.554860830307007,1.3,1.33,1.15,2.18
4.563650846481323,1.48,1.33,1.81,2.68
4.564466953277588,1.26,1.55,2.07,2.87
4.584636926651001,1.07,1.52,2.34,2.98
4.58876895904541,1.03,1.15,2.54,2.97
4.596564769744873,1.13,0.68,2.71,3.01
4.599620819091797,1.41,0.16,2.93,3.25
4.615664958953857,1.65,-0.39,3.05,3.48
4.619214057922363,1.79,-1.03,3.21,3.81
4.633211851119995,1.87,-1.61,3.26,4.08
4.646084785461426,1.88,-1.98,2.66,3.81
4.647446870803833,1.9,-2.2,1.58,3.3
4.66720986366272,1.96,-2.38,0.93,3.22
4.670289993286133,1.89,-2.57,0.46,3.22
4.679407835006714,1.82,-2.73,0.18,3.28
4.680767059326172,1.55,-2.98,-0.07,3.35
4.6980578899383545,1.28,-2.7,-0.87,3.11
4.70200777053833,1.34,-2.27,-1.79,3.18
4.715827941894531,1.14,-1.93,-2.86,3.63
4.719677925109863,1.47,-1.99,-3.0,3.88
4.735805034637451,1.49,-1.6,-3.05,3.75
4.736692905426025,1.54,-1.13,-2.6,3.22
4.752802848815918,1.59,-0.79,-2.06,2.71
4.755928993225098,1.51,-0.64,-1.57,2.27
4.764221906661987,1.03,-0.39,-1.51,1.86
4.765483856201172,0.31,-0.1,-1.95,1.97
4.781735897064209,-0.01,-0.3,-1.97,1.99
4.785717010498047,-0.25,-0.43,-1.82,1.88
4.79820990562439,-0.42,-0.42,-1.65,1.75
4.80192494392395,-0.6,-0.47,-1.48,1.66
4.819596767425537,-0.62,-0.51,-1.59,1.78
4.820467948913574,-0.3,-0.52,-2.01,2.09
4.83561897277832,0.07,-0.4,-2.32,2.35
4.83882474899292,0.33,-0.06,-2.22,2.24
4.848631858825684,0.35,0.17,-1.66,1.7
4.852519989013672,0.07,0.46,-1.39,1.46
4.8648600578308105,-0.19,0.81,-1.53,1.74
4.867595911026001,-0.35,1.0,-1.6,1.91
4.883351802825928,-0.43,1.16,-1.56,1.99
4.88533878326416,-0.48,1.3,-1.25,1.86
4.901191711425781,-0.55,1.39,-0.88,1.73
4.902132034301758,-0.57,1.36,-0.61,1.59
4.9184699058532715,-0.51,1.34,-0.35,1.47
4.9205827713012695,-0.38,1.27,-0.12,1.33
4.932370901107788,-0.2,1.26,-0.03,1.27
4.936028957366943,0.08,1.48,0.1,1.48
4.947706937789917,0.24,1.56,0.1,1.58
4.949849843978882,0.33,1.63,-0.18,1.67
4.966330051422119,0.47,1.77,-0.25,1.84
4.9702839851379395,0.56,1.95,-0.3,2.05
4.9855568408966064,0.49,1.97,-0.37,2.06
4.986354827880859,0.61,1.87,-0.16,1.97
5.003133773803711,0.63,1.88,-0.05,1.98
5.007120847702026,0.62,1.95,0.16,2.05
5.015390872955322,0.64,1.87,0.47,2.03
5.018584728240967,0.69,1.46,0.79,1.79
5.0324387550354,0.61,0.94,0.95,1.46
5.035898923873901,0.38,0.45,1.02,1.17
5.0483527183532715,0.19,0.01,1.08,1.09
5.051970958709717,0.03,-0.11,0.95,0.95
5.064494848251343,-0.04,0.1,0.66,0.66
5.065920829772949,0.04,0.5,0.38,0.62
5.083459854125977,0.22,0.91,0.18,0.95
5.08721399307251,0.26,1.17,-0.1,1.2
5.099155902862549,0.09,1.12,-0.15,1.13
5.102259874343872,0.01,1.12,-0.05,1.12
5.1149609088897705,-0.31,1.25,-0.05,1.28
5.118559837341309,-0.54,1.03,0.22,1.18
5.130810737609863,-0.68,0.63,0.72,1.17
5.13363790512085,-0.85,0.28,1.34,1.61
5.1528708934783936,-1.18,-0.07,1.89,2.22
5.154214859008789,-1.45,-0.58,2.66,3.08
5.164564847946167,-1.59,-1.12,3.41,3.92
5.165748834609985,-1.56,-1.7,3.67,4.33
5.182520866394043,-1.27,-2.25,3.57,4.4
5.186445713043213,-0.95,-2.74,3.17,4.29
5.19554591178894,-0.79,-3.03,2.55,4.03
5.1967339515686035,-0.82,-2.97,1.85,3.59
5.214764833450317,-1.07,-2.61,1.27,3.09
5.218251943588257,-1.47,-2.18,0.75,2.73
5.232626914978027,-1.88,-1.71,0.3,2.55
5.234076023101807,-2.22,-1.28,-0.03,2.56
5.252975940704346,-2.49,-1.03,-0.18,2.7
5.257123947143555,-2.63,-0.88,-0.26,2.78
5.264883995056152,-2.62,-0.78,-0.27,2.74
5.268356800079346,-2.46,-0.64,-0.2,2.54
5.281033039093018,-2.21,-0.49,-0.15,2.26
5.284234046936035,-1.9,-0.48,-0.24,1.97
5.299017906188965,-1.55,-0.54,-0.46,1.7
5.302520751953125,-1.25,-0.55,-0.74,1.55
5.315238952636719,-0.98,-0.58,-1.04,1.54
5.3166258335113525,-0.74,-0.64,-1.38,1.69
5.335795879364014,-0.54,-0.7,-1.75,1.96
5.339056015014648,-0.42,-0.77,-2.01,2.19
5.346076965332031,-0.44,-0.71,-2.11,2.26
5.3473219871521,-0.62,-0.58,-2.1,2.26
5.364596843719482,-0.85,-0.56,-1.99,2.23
5.368055820465088,-1.04,-0.51,-1.84,2.17
5.3814287185668945,-1.29,-0.5,-1.54,2.07
5.384998798370361,-1.28,-0.61,-1.06,1.77
5.3991758823394775,-1.29,-0.47,-0.87,1.62
5.400572776794434,-1.23,-0.35,-0.66,1.43
5.419436931610107,-1.11,-0.29,-0.5,1.25
5.422651767730713,-1.08,-0.14,-0.47,1.18
5.431994915008545,-1.09,0.03,-0.54,1.21
5.43500280380249,-1.11,0.18,-0.52,1.23
5.447951793670654,-1.17,0.39,-0.48,1.32
5.451357841491699,-1.24,0.59,-0.37,1.42
5.465334892272949,-1.24,0.7,-0.19,1.43
5.468536853790283,-1.12,0.78,-0.01,1.36
5.486512899398804,-0.95,0.78,0.18,1.24
5.48723292350769,-0.74,0.82,0.39,1.17
5.501337051391602,-0.47,0.92,0.59,1.18
5.504816055297852,-0.45,0.94,0.83,1.33
5.51637601852417,-0.56,0.95,1.05,1.52
5.519455909729004,-0.53,0.74,1.42,1.68
5.531284809112549,-0.62,0.93,1.09,1.56
5.534650802612305,-0.53,0.98,0.77,1.35
5.548019886016846,-0.12,1.01,1.02,1.44
5.552111864089966,0.21,1.25,0.94,1.57
5.56885290145874,0.5,1.48,0.82,1.76
5.570005893707275,0.79,1.48,0.91,1.9
5.580648899078369,1.03,1.32,1.68,2.37
5.581476926803589,0.69,1.55,1.69,2.39
5.598894834518433,0.48,1.47,1.59,2.21
5.602561950683594,0.46,1.35,1.42,2.01
5.614438056945801,0.6,1.29,1.2,1.86
5.61829686164856,0.85,1.48,0.93,1.94
5.631612777709961,1.28,1.23,0.92,1.99
5.635333061218262,1.75,0.71,0.96,2.11
5.653077840805054,2.0,0.43,0.75,2.17
5.653926849365234,1.89,0.39,0.72,2.05
5.668499946594238,1.66,0.12,1.07,1.97
5.670684814453125,1.41,-0.32,1.36,1.98
5.682330846786499,1.38,-0.79,1.32,2.06
5.685702800750732,1.54,-1.46,1.04,2.36
5.695589065551758,1.76,-2.15,0.65,2.85
5.696950912475586,2.12,-2.86,-0.49,3.59
5.714684009552002,2.69,-3.34,-0.81,4.36
5.719130992889404,2.99,-3.16,-1.36,4.55
5.735119819641113,2.91,-2.23,-2.07,4.21
5.736003875732422,2.7,-1.57,-2.49,3.99
5.752049922943115,2.39,-1.58,-2.53,3.82
5.755177021026611,2.4,-1.63,-2.36,3.73
5.76515793800354,2.31,-1.21,-2.07,3.32
5.767745018005371,2.12,-0.53,-1.82,2.84
5.782054901123047,1.51,0.0,-1.71,2.28
5.78510594367981,0.61,0.26,-1.51,1.64
5.7973549365997314,0.07,0.31,-1.18,1.22
5.800734043121338,-0.24,0.17,-0.73,0.78
5.819156885147095,-0.55,-0.09,-0.25,0.61
5.820032835006714,-0.61,0.02,-0.23,0.65
5.832637786865234,-0.62,0.17,-0.25,0.68
5.8352508544921875,-0.6,0.21,-0.32,0.71
5.851325035095215,-0.55,0.25,-0.88,1.06
5.855142831802368,-0.47,0.23,-1.45,1.54
5.864433765411377,-0.34,0.13,-2.03,2.06
5.868167877197266,-0.12,0.09,-2.49,2.49
5.8821868896484375,-0.1,0.07,-2.6,2.6
5.885519981384277,-0.02,0.31,-2.69,2.7
5.8993189334869385,0.06,0.45,-2.86,2.89
5.9005279541015625,0.16,0.51,-2.86,2.9
5.919498920440674,0.23,0.64,-2.57,2.65
5.922455787658691,0.19,0.77,-2.13,2.27
5.931602954864502,0.13,0.83,-1.69,1.88
5.934783935546875,0.04,0.72,-1.37,1.54
5.94974684715271,-0.12,0.63,-1.05,1.23
5.952297925949097,-0.35,0.64,-0.74,1.03
5.964124917984009,-0.47,0.71,-0.56,1.01
5.967437744140625,-0.44,0.81,-0.49,1.04
5.988847732543945,-0.38,0.84,-0.52,1.05
5.99008584022522,-0.44,0.89,-0.61,1.16
5.997238874435425,-0.34,1.0,-0.78,1.31
5.9984450340271,-0.02,1.11,-1.06,1.53
6.015642881393433,0.34,1.25,-0.96,1.61
6.019654750823975,0.67,1.3,-0.43,1.52
6.032629013061523,1.28,1.42,0.52,1.98
6.036257743835449,1.71,1.63,1.71,2.91
6.04842472076416,1.54,1.84,2.44,3.42
6.052194833755493,1.16,1.71,2.71,3.4
6.066067934036255,0.88,1.39,3.13,3.53
6.067502975463867,0.71,1.46,3.15,3.54
6.084298849105835,0.76,1.82,3.0,3.59
6.087970733642578,1.05,2.12,3.12,3.91
6.098138809204102,1.37,2.02,3.43,4.2
6.100627899169922,1.56,1.28,3.88,4.37
6.1146087646484375,1.38,1.32,4.23,4.64
6.1177659034729,0.9,1.57,4.76,5.09
6.1326048374176025,0.93,0.53,4.96,5.07
6.1361448764801025,0.96,-0.55,3.71,3.87
6.148190021514893,0.44,-0.6,2.91,3.0
6.149611949920654,0.12,-0.72,2.4,2.5
6.1666579246521,0.15,-0.98,1.38,1.69
6.170431852340698,0.48,-1.17,0.49,1.35
6.183884859085083,0.93,-1.33,-0.07,1.62
6.187363862991333,1.51,-1.23,-0.57,2.02
6.196447849273682,1.8,-1.01,-0.74,2.19
6.197303771972656,1.63,-0.76,-1.0,2.05
6.215054988861084,1.19,-0.81,-0.72,1.6
6.219064712524414,0.41,-1.11,-0.06,1.18
6.236614942550659,-0.69,-0.8,0.34,1.1
6.237919807434082,-1.34,-0.67,0.48,1.57
6.246746063232422,-1.73,-0.6,0.48,1.89
6.247525930404663,-1.98,-0.34,0.43,2.05
6.265898942947388,-2.15,0.47,0.39,2.23
6.269615888595581,-1.98,0.68,0.48,2.14
6.281848907470703,-1.8,0.37,-0.17,1.84
6.285332918167114,-1.78,-0.01,-0.73,1.92
6.297867774963379,-1.87,-0.72,-1.41,2.45
6.301673889160156,-1.67,-1.47,-1.98,2.97
6.319035053253174,-1.43,-0.87,-2.94,3.38
6.319881916046143,-1.09,-0.81,-2.51,2.85
6.335004806518555,-1.05,-0.87,-2.22,2.6
6.338454723358154,-0.97,-0.24,-2.16,2.37
6.34847092628479,-0.86,0.12,-1.96,2.14
6.352458953857422,-0.89,0.1,-2.25,2.42
6.3644490242004395,-0.95,0.09,-2.59,2.76
6.366888046264648,-0.9,-0.14,-2.34,2.51
6.381224870681763,-0.83,-0.36,-2.24,2.41
6.38494873046875,-0.85,-0.37,-2.57,2.73
6.398715972900391,-0.82,-0.17,-2.87,2.98
6.399906873703003,-0.75,0.03,-2.79,2.88
6.419059753417969,-0.63,0.25,-2.46,2.55
6.422600746154785,-0.22,0.36,-1.86,1.9
6.429296970367432,0.21,0.51,-1.61,1.7
6.430586814880371,0.44,0.62,-1.75,1.9
6.44822883605957,0.51,0.61,-1.76,1.93
6.4517998695373535,0.32,0.67,-1.22,1.42
6.465456008911133,-0.06,0.79,-0.4,0.88
6.469198942184448,-0.39,0.9,0.29,1.02
6.487898826599121,-0.45,0.67,0.85,1.17
6.488862037658691,-0.49,0.77,1.2,1.5
6.4972169399261475,-0.44,1.02,1.31,1.71
6.498045921325684,-0.04,0.79,1.47,1.66
6.517011880874634,0.16,0.58,1.53,1.64
6.5208587646484375,0.2,0.66,1.56,1.7
6.5309367179870605,0.28,0.94,1.77,2.02
6.5344109535217285,0.38,1.23,1.88,2.27
6.547959804534912,0.55,1.47,2.12,2.63
6.551446914672852,0.79,1.45,2.23,2.77
6.571613788604736,1.18,1.25,2.5,3.03
6.573046922683716,1.54,1.05,2.91,3.45
6.583227872848511,1.77,0.88,3.07,3.65
6.586683750152588,1.89,0.6,3.02,3.61
6.598968029022217,1.9,0.1,2.99,3.54
6.602898836135864,1.8,-0.38,2.88,3.41
6.615826845169067,1.67,-0.63,2.94,3.43
6.6194658279418945,1.64,-0.64,2.41,2.98
6.631592750549316,1.74,-0.97,1.55,2.52
6.635602951049805,1.89,-1.53,0.71,2.53
6.653223991394043,2.08,-2.19,-0.16,3.02
6.654069900512695,2.35,-2.84,-0.84,3.78
6.667252063751221,2.66,-3.31,-1.32,4.44
6.670277833938599,2.87,-3.59,-1.82,4.94
6.681983947753906,3.02,-3.75,-1.92,5.18
6.685516834259033,3.01,-3.7,-2.0,5.17
6.69557785987854,2.79,-3.6,-2.26,5.08
6.696905851364136,2.54,-3.33,-2.53,4.89
6.716157913208008,2.31,-2.83,-2.47,4.4
6.719902992248535,1.78,-1.97,-2.25,3.48
6.732728004455566,1.16,-0.95,-1.68,2.25
6.734047889709473,0.49,0.11,-0.86,0.99
6.749208927154541,-0.15,0.89,-0.28,0.94
6.751360893249512,-0.57,1.25,0.01,1.37
6.767587900161743,-0.74,1.21,-0.12,1.42
6.7715818881988525,-0.61,0.82,-0.4,1.09
6.7809178829193115,-0.3,0.46,-0.96,1.1
6.784523010253906,-0.28,0.48,-1.57,1.66
6.798735857009888,-0.3,0.63,-2.05,2.16
6.801828861236572,-0.41,0.64,-2.25,2.37
6.820876836776733,-0.65,0.62,-2.21,2.38
6.8217408657073975,-0.69,0.52,-2.07,2.24
6.8332788944244385,-0.67,0.47,-2.11,2.26
6.836845874786377,-0.63,0.48,-2.19,2.32
6.84611177444458,-0.57,0.47,-2.2,2.32
6.847192764282227,-0.44,0.5,-2.13,2.23
6.866227865219116,-0.38,0.59,-1.88,2.0
6.869991779327393,-0.44,0.82,-1.57,1.82
6.8806939125061035,-0.48,1.03,-1.28,1.71
6.883875846862793,-0.48,1.06,-0.91,1.47
6.9029998779296875,-0.66,1.22,-0.84,1.62
6.903786897659302,-0.56,1.24,-0.53,1.46
6.917939901351929,-0.64,1.08,-0.02,1.25
6.921334743499756,-0.74,1.28,-0.03,1.47
6.931869983673096,-0.62,1.46,0.07,1.58
6.935819864273071,-0.48,1.54,-0.02,1.61
6.947751045227051,-0.38,1.61,-0.3,1.68
6.951438903808594,-0.18,1.42,-0.22,1.44
6.964472770690918,-0.13,1.21,0.05,1.21
6.96844482421875,-0.26,1.05,0.28,1.11
6.9854960441589355,-0.38,1.25,0.27,1.33
6.986376762390137,-0.16,1.22,0.29,1.26
7.000295877456665,0.01,0.86,0.13,0.86
7.0040318965911865,0.11,0.41,0.13,0.44
7.017371892929077,0.2,0.2,0.21,0.35
7.021208763122559,0.3,0.33,0.29,0.53
7.031435012817383,0.47,0.62,0.46,0.9
7.0353827476501465,0.54,1.01,0.8,1.39
7.048343896865845,0.28,1.22,1.33,1.82
7.051755905151367,0.02,1.35,1.78,2.23
7.069538831710815,-0.17,1.29,2.58,2.88
7.070858001708984,-0.18,0.6,3.31,3.36
7.079946041107178,-0.21,-0.16,3.4,3.41
7.080783843994141,-0.19,-0.47,3.31,3.34
7.099791049957275,-0.18,-0.47,2.91,2.95
7.103446006774902,-0.29,-0.19,2.53,2.55
7.1153340339660645,-0.25,0.05,2.36,2.37
7.11917781829834,-0.18,0.03,2.08,2.08
7.131037712097168,0.25,-0.37,1.94,1.99
7.133379936218262,0.56,-0.4,1.75,1.88
7.155176877975464,0.72,-0.4,1.6,1.79
7.156487941741943,0.64,-0.43,1.25,1.46
7.166581869125366,0.42,-0.56,0.94,1.17
7.169689893722534,0.16,-0.8,0.83,1.16
7.18142294883728,0.14,-1.12,0.74,1.34
7.183815956115723,0.06,-1.54,0.37,1.58
7.200747013092041,-0.17,-2.04,-0.69,2.16
7.204593896865845,-0.29,-2.38,-1.8,2.99
7.2142767906188965,-0.27,-2.63,-1.76,3.17
7.217382907867432,-0.01,-2.4,-1.12,2.64
7.236210823059082,0.3,-1.51,-0.41,1.59
7.237083911895752,0.34,-0.32,0.65,0.8
7.250638961791992,0.47,0.7,2.09,2.25
7.252941846847534,0.92,1.2,3.78,4.07
7.266315937042236,1.86,1.27,4.15,4.72
7.269235849380493,0.56,0.18,0.57,0.81
7.281051874160767,-4.6,-1.58,-5.47,7.31
7.284373760223389,-5.1,1.59,-0.04,5.34
7.299051761627197,-1.31,2.48,1.61,3.23
7.302887916564941,1.63,1.46,0.46,2.23
7.319373846054077,2.52,0.28,0.21,2.54
7.320589065551758,2.23,-0.98,0.22,2.44
7.330028057098389,1.33,-2.11,0.5,2.54
7.331370830535889,0.27,-2.89,0.14,2.9
7.350661754608154,-1.43,-3.45,-0.19,3.73
7.354495048522949,-3.53,-3.74,-0.45,5.16
7.364105939865112,-4.04,-2.87,-2.11,5.38
7.367496013641357,-3.0,-1.81,-7.29,8.08
7.380664825439453,-1.39,-0.88,-9.93,10.06
7.385109901428223,-1.12,0.35,-9.69,9.76
7.4042699337005615,-1.9,2.03,-8.47,8.91
7.405623912811279,-2.48,3.48,-5.58,7.02
7.416180849075317,-1.65,3.99,-3.41,5.5
7.420001983642578,0.5,1.61,-3.1,3.52
7.429401874542236,1.51,-0.58,-2.26,2.77
7.430752754211426,0.88,-0.81,-0.92,1.5
7.4501190185546875,0.35,-0.57,-0.06,0.67
7.454160928726196,0.31,-0.31,0.54,0.69
7.464570999145508,-0.12,0.31,2.08,2.1
7.468891859054565,-0.94,0.97,3.82,4.05
7.48348593711853,-1.71,1.37,3.83,4.41
7.484438896179199,-1.36,1.82,1.68,2.82
7.501012802124023,-0.86,1.98,1.0,2.37
7.504278898239136,-0.66,1.64,1.64,2.41
7.516619920730591,-0.63,1.22,2.09,2.5
7.519093036651611,-0.81,1.21,2.24,2.67
7.530614852905273,-0.96,1.41,2.35,2.9
7.534189939498901,-0.91,1.82,2.57,3.27
7.547857761383057,-0.5,2.06,2.7,3.43
7.551244735717773,0.14,2.36,2.79,3.65
7.565680027008057,0.79,2.59,2.2,3.48
7.566939830780029,1.46,2.3,1.67,3.19
7.588683843612671,2.11,1.76,0.92,2.89
7.592639923095703,2.51,1.03,0.23,2.72
7.596720933914185,2.57,0.41,-0.26,2.61
7.597550868988037,2.48,-0.17,-0.68,2.57
7.616785049438477,2.14,-1.09,0.01,2.4
7.618721961975098,2.07,-2.52,1.25,3.49
7.631896018981934,1.77,-3.37,1.3,4.02
7.6350319385528564,1.49,-3.85,1.41,4.36
7.654332876205444,1.23,-3.97,1.3,4.35
7.655543804168701,0.97,-4.07,0.72,4.24
7.662927865982056,0.87,-4.05,-0.07,4.14
7.663755893707275,0.62,-3.76,-0.67,3.86
7.684216022491455,0.3,-3.32,-1.17,3.53
7.688225746154785,-0.03,-2.97,-1.78,3.46
7.697488784790039,-0.34,-2.76,-2.0,3.42
7.700053930282593,-0.69,-2.64,-1.82,3.27
7.714223861694336,-1.02,-2.35,-1.41,2.92
7.7168169021606445,-1.23,-2.08,-1.54,2.86
7.735991954803467,-1.28,-1.66,-1.87,2.8
7.737304925918579,-1.26,-1.04,-1.54,2.24
7.7462098598480225,-1.19,-0.63,-1.35,1.9
7.747024059295654,-1.1,-0.33,-1.15,1.62
7.7650628089904785,-1.1,-0.03,-0.65,1.27
7.768590927124023,-1.22,0.41,-0.72,1.47
7.782135009765625,-1.05,0.63,-1.36,1.83
7.785583972930908,-1.04,0.83,-1.58,2.06
7.797173976898193,-1.57,1.11,-0.8,2.08
7.800501823425293,-2.36,0.36,-0.27,2.4
7.819331884384155,-2.79,-1.02,0.39,2.99
7.82067084312439,-2.92,-0.8,-0.09,3.02
7.833910942077637,-2.82,-0.63,-0.27,2.9
7.8376359939575195,-2.53,-0.26,0.52,2.59
7.845810890197754,-2.19,0.3,0.62,2.29
7.846945762634277,-2.04,0.41,0.69,2.19
7.8643717765808105,-1.86,0.12,0.32,1.89
7.868196964263916,-1.55,-0.07,0.17,1.56
7.88084602355957,-1.08,-0.11,-0.02,1.08
7.883378982543945,-0.66,0.03,-0.33,0.73
7.90234899520874,-0.4,0.47,-0.9,1.09
7.903802871704102,-0.39,0.86,-1.15,1.48
7.913501739501953,-0.5,0.92,-1.29,1.66
7.914816856384277,-0.58,1.09,-1.06,1.62
7.934321880340576,-0.65,1.64,-0.76,1.92
7.938138008117676,-0.1,1.55,-0.81,1.75
7.948655843734741,0.28,1.82,-1.08,2.13
7.951552867889404,0.45,1.76,-0.96,2.05
7.966588973999023,1.34,2.01,-1.76,2.98
7.970221042633057,2.01,3.0,-1.42,3.88
7.980869770050049,2.33,3.18,0.15,3.94
7.981698036193848,2.07,3.06,1.46,3.97
8.003931999206543,1.5,3.06,0.89,3.52
8.00764274597168,1.22,3.2,-0.75,3.5
8.01569390296936,1.42,3.41,-1.02,3.83
8.019482851028442,1.26,3.18,-0.39,3.44
8.030895948410034,1.2,2.51,0.51,2.82
8.033199787139893,1.67,1.9,1.24,2.81
8.047865867614746,1.89,1.22,1.5,2.7
8.052015781402588,1.8,0.62,1.29,2.29
8.069056034088135,1.69,-0.34,0.9,1.94
8.06994104385376,1.72,-1.85,0.52,2.57
8.08612871170044,1.82,-3.36,0.61,3.86
8.089191913604736,1.9,-4.49,1.09,4.99
8.095987796783447,1.3,-5.03,0.99,5.28
8.097277879714966,0.46,-4.83,0.86,4.92
8.115596771240234,-0.02,-4.77,0.8,4.83
8.119727849960327,-0.32,-4.94,0.58,4.98
8.131062030792236,-0.71,-4.58,0.3,4.64
8.134160041809082,-1.08,-3.79,0.01,3.94
8.149312019348145,-1.47,-3.02,-0.12,3.36
8.150140762329102,-1.91,-2.38,0.78,3.14
8.168140888214111,-2.39,-2.18,1.64,3.62
8.171849727630615,-2.75,-2.13,0.59,3.52
8.1820650100708,-2.76,-2.0,-0.77,3.49
8.185829877853394,-2.7,-1.84,-1.26,3.5
8.197734832763672,-2.6,-1.38,-1.0,3.1
8.201461791992188,-2.32,-1.26,-0.85,2.77
8.21580982208252,-1.97,-2.24,-1.38,3.28
8.21956205368042,-1.64,-3.3,-1.77,4.08
8.235134840011597,-1.24,-3.93,-2.29,4.71
8.235981941223145,-1.15,-4.44,-2.59,5.26
8.250098943710327,-1.14,-4.59,-2.9,5.54
8.252235889434814,-1.23,-4.41,-3.26,5.62
8.267727851867676,-1.42,-3.84,-3.45,5.35
8.271543025970459,-1.63,-3.4,-3.56,5.18
8.281080722808838,-1.85,-3.29,-3.61,5.22
8.284682750701904,-2.27,-2.9,-3.58,5.13
8.298127889633179,-2.88,-1.8,-3.15,4.63
8.301547050476074,-3.48,-0.83,-2.54,4.38
8.315907001495361,-3.96,-0.15,-1.75,4.33
8.317170858383179,-3.92,0.44,-0.68,4.0
8.336012840270996,-3.77,0.0,0.5,3.8
8.338934898376465,-3.62,-0.43,1.74,4.03
8.34814190864563,-3.74,-0.34,2.56,4.54
8.351142883300781,-3.87,-0.09,3.3,5.08
8.366209983825684,-3.43,0.15,4.13,5.37
8.368782043457031,-2.14,-0.05,4.88,5.32
8.381457805633545,-0.66,0.06,5.47,5.51
8.384877920150757,0.7,-0.1,5.42,5.46
8.403241872787476,1.96,0.11,4.96,5.33
8.404100894927979,3.24,0.34,4.51,5.56
8.417598724365234,4.77,0.95,4.08,6.34
8.42064905166626,5.37,1.48,4.15,6.94
8.429597854614258,6.14,1.72,4.45,7.77
8.43092679977417,6.89,1.39,3.85,8.01
8.449189901351929,7.5,1.51,3.62,8.46
8.453353881835938,8.87,1.84,4.36,10.05
8.464221954345703,10.26,1.49,4.63,11.35
8.468265056610107,11.58,0.88,4.71,12.53
8.481453895568848,12.7,0.12,4.7,13.54
8.482719898223877,13.46,-1.19,4.27,14.17
8.500916004180908,13.81,-1.44,2.8,14.16
8.504808902740479,13.69,-1.2,-0.2,13.74
8.514733791351318,12.48,-0.45,-5.37,13.59
8.51862382888794,9.28,0.05,-9.3,13.13
8.530756950378418,7.23,-1.16,-6.92,10.07
8.534534931182861,5.43,-2.02,-3.63,6.83
8.547866821289062,4.1,-2.13,-1.75,4.94
8.551321029663086,3.06,-1.91,-1.41,3.87
8.566328048706055,2.45,-1.59,-1.44,3.25
8.56732702255249,2.15,-1.2,-0.68,2.55
8.582499027252197,1.86,-0.64,0.16,1.97
8.586025714874268,1.67,-0.22,0.77,1.85
8.598004817962646,1.24,0.21,1.55,1.99
8.600311756134033,-0.34,-0.39,2.78,2.82
8.616252899169922,-2.11,-0.65,4.78,5.26
8.61985993385315,-4.16,-1.41,7.03,8.28
8.630675792694092,-5.41,-1.21,7.89,9.64
8.633857727050781,-6.49,-2.0,6.4,9.33
8.649495840072632,-6.53,-2.07,4.94,8.44
8.65675687789917,-6.89,-1.37,4.5,8.34
8.663197040557861,-7.78,-2.16,4.35,9.17
8.664028882980347,-7.39,-4.16,0.9,8.52
8.682195901870728,-6.13,-5.03,-2.39,8.28
8.68533706665039,-3.7,-4.26,-3.09,6.43
8.69760799407959,-1.51,-4.21,-3.64,5.76
8.701159954071045,-1.76,-2.16,-6.19,6.78
8.714471817016602,-2.48,-0.19,-7.22,7.63
8.718103885650635,-2.13,-0.27,-7.21,7.52
8.736340999603271,-0.8,-1.71,-6.84,7.09
8.737640857696533,-0.79,-3.03,-4.95,5.85
8.75194501876831,-1.68,-2.31,-1.83,3.39
8.755612850189209,-2.2,-0.46,0.37,2.27
8.76267671585083,-2.47,1.2,1.99,3.39
8.763981819152832,-2.85,2.39,3.49,5.1
8.781873941421509,-3.18,2.91,4.91,6.53
8.785587787628174,-2.77,2.71,5.95,7.1
8.795384883880615,-1.93,2.21,5.89,6.58
8.796672821044922,-0.98,2.25,4.74,5.33
8.822206020355225,-0.59,2.51,2.97,3.93
8.823400020599365,-0.71,2.2,1.35,2.67
8.830342769622803,-0.77,1.54,1.09,2.03
8.831676006317139,-0.91,0.86,1.4,1.87
8.851062774658203,-0.96,0.49,0.36,1.13
8.855079889297485,-1.03,0.61,-1.66,2.04
8.86455488204956,-1.09,1.28,-3.48,3.86
8.868392944335938,-1.18,1.96,-4.32,4.88
8.881692886352539,-1.08,2.19,-4.58,5.19
8.885424852371216,-0.72,2.06,-3.3,3.95
8.899240016937256,-0.38,1.52,-1.28,2.02
8.900632858276367,0.43,0.75,0.19,0.88
8.915956974029541,1.39,0.58,-0.32,1.53
8.919873714447021,2.27,0.56,-1.4,2.72
8.931411743164062,2.53,0.38,-2.19,3.36
8.935144901275635,3.0,-0.11,-3.37,4.51
8.947305917739868,2.62,-1.17,-6.77,7.35
8.949833869934082,2.5,-0.36,-8.9,9.25
8.96599006652832,3.03,1.21,-8.46,9.06
8.970090866088867,3.06,1.76,-6.86,7.71
8.98544692993164,2.99,1.02,-4.42,5.43
8.986319065093994,3.0,0.18,-2.19,3.71
9.002013921737671,3.1,-0.75,-0.25,3.19
9.005295753479004,3.33,-1.59,1.9,4.15
9.015114784240723,3.43,-1.98,4.06,5.67
9.01798391342163,3.15,-2.13,4.98,6.26
9.031500816345215,2.56,-1.92,4.89,5.84
9.0342698097229,1.92,-1.6,4.95,5.54
9.048312902450562,1.28,-1.89,3.82,4.45
9.051519870758057,0.29,-1.52,2.46,2.9
9.070029735565186,-0.64,-0.84,2.18,2.42
9.070923805236816,-1.11,-1.7,1.44,2.48
9.082984924316406,-1.31,-1.84,1.55,2.73
9.08526086807251,-1.39,-1.42,1.86,2.72
9.102093935012817,-1.6,-1.28,1.98,2.84
9.106053829193115,-1.77,-1.57,1.76,2.94
9.114150047302246,-1.59,-1.41,2.23,3.08
9.117365837097168,-1.42,-1.48,3.38,3.95
9.131103038787842,-1.32,-1.81,3.98,4.56
9.134720802307129,-1.55,-2.26,4.17,4.98
9.153292894363403,-1.66,-2.12,4.34,5.1
9.154160022735596,-1.68,-2.47,3.99,4.98
9.165802001953125,-1.48,-3.04,3.02,4.53
9.166992902755737,-0.99,-3.36,1.74,3.91
9.1842360496521,-0.36,-3.37,0.96,3.52
9.188156843185425,0.29,-3.13,0.49,3.18
9.198143005371094,0.82,-2.2,-0.62,2.42
9.20178484916687,0.87,-0.97,-1.63,2.08
9.214439868927002,1.0,0.09,-2.17,2.39
9.217938899993896,1.19,0.71,-2.37,2.74
9.23201584815979,1.42,1.16,-2.39,3.01
9.233214855194092,1.77,1.31,-2.36,3.22
9.252594947814941,1.9,1.64,-1.76,3.06
9.25568675994873,1.64,2.72,-1.01,3.33
9.264859914779663,0.91,3.23,-0.78,3.44
9.268002986907959,0.07,3.56,-0.59,3.6
9.282114028930664,-0.66,3.46,-0.32,3.53
9.285207748413086,-1.1,3.12,-0.29,3.32
9.298297882080078,-1.35,2.83,-0.32,3.15
9.3017578125,-1.42,2.49,-0.21,2.87
9.319808959960938,-1.29,2.26,-0.04,2.6
9.320657730102539,-1.07,2.03,0.08,2.29
9.334046840667725,-0.89,1.88,0.13,2.08
9.336177825927734,-0.74,1.87,0.13,2.01
9.348346948623657,-0.57,1.8,0.1,1.89
9.351642847061157,-0.33,1.69,0.05,1.72
9.36973786354065,-0.03,1.47,-0.08,1.47
9.373755931854248,0.33,1.17,-0.15,1.22
9.378968715667725,0.67,0.82,-0.16,1.07
9.380239009857178,0.98,0.41,-0.26,1.09
9.405148983001709,1.23,0.0,-0.6,1.36
9.406336784362793,1.41,0.12,-0.97,1.71
9.417003870010376,1.34,0.27,-0.97,1.67
9.420376777648926,1.7,0.5,-1.27,2.18
9.429491996765137,2.65,0.71,-1.32,3.04
9.43078088760376,3.43,0.79,-2.11,4.1
9.4481520652771,3.64,0.45,-2.73,4.57
9.452021837234497,3.77,-0.13,-3.26,4.98
9.465070724487305,3.94,-0.57,-3.23,5.12
9.468800067901611,4.03,-1.23,-3.21,5.29
9.488373756408691,3.86,-1.4,-2.83,4.98
9.489320755004883,3.6,-0.89,-1.94,4.18
9.496986865997314,3.42,-0.39,-1.32,3.68
9.49822998046875,3.36,0.34,-0.76,3.46
9.516384840011597,3.46,0.04,-0.65,3.52
9.519913911819458,3.07,-0.35,-0.87,3.21
9.530962944030762,1.97,0.23,-0.44,2.03
9.532289028167725,0.65,0.91,0.48,1.21
9.548429012298584,-0.1,0.34,0.96,1.02
9.552230834960938,-0.69,-0.12,1.33,1.5
9.566170930862427,-1.13,-0.01,2.01,2.3
9.567609786987305,-1.21,-0.61,1.81,2.26
9.585484027862549,-1.36,-1.29,1.67,2.51
9.589184761047363,-1.6,-1.83,1.87,3.06
9.598536014556885,-1.27,-2.39,2.6,3.75
9.60241985321045,-0.69,-3.02,3.3,4.52
9.615027904510498,-0.3,-3.9,4.27,5.79
9.619425773620605,-0.25,-4.96,5.05,7.08
9.6284818649292,-0.67,-5.52,5.38,7.73
9.62973403930664,-1.41,-5.43,5.17,7.62
9.654429912567139,-1.94,-4.98,4.32,6.87
9.65524673461914,-2.21,-3.87,2.39,5.05
9.664248943328857,-2.04,-2.12,-0.09,2.94
9.665496826171875,-1.23,-0.11,-2.45,2.74
9.683045864105225,0.6,1.57,-5.65,5.89
9.687050819396973,0.76,3.46,-8.58,9.28
9.698041915893555,-0.04,4.22,-5.56,6.98
9.701697826385498,-0.67,3.36,-2.48,4.22
9.71553897857666,-1.22,2.5,-0.21,2.78
9.71917200088501,-1.61,1.61,2.17,3.14
9.73128890991211,-1.81,0.92,3.48,4.02
9.732759952545166,-2.23,0.68,3.72,4.39
9.749753952026367,-2.6,0.36,3.69,4.52
9.753825902938843,-2.79,0.17,3.79,4.7
9.76292371749878,-2.94,0.08,3.77,4.78
9.764230728149414,-3.11,-0.01,3.71,4.84
9.781371831893921,-3.12,-0.08,3.39,4.6
9.785298824310303,-2.93,-0.02,2.93,4.14
9.797653913497925,-2.75,0.15,2.35,3.62
9.801448822021484,-2.74,0.38,1.61,3.2
9.81598687171936,-2.9,0.57,1.03,3.12
9.817333936691284,-2.97,0.72,0.66,3.12
9.835618019104004,-2.48,0.63,0.49,2.6
9.839255809783936,-2.03,0.94,0.09,2.23
9.846153736114502,-1.52,1.45,-0.64,2.19
9.847471714019775,-0.71,1.64,-1.76,2.5
9.865124940872192,0.55,1.87,-3.14,3.69
9.86903190612793,2.05,2.52,-4.62,5.64
9.880908012390137,4.07,2.42,-6.5,8.04
9.884407043457031,6.06,1.06,-7.57,9.75
9.89916181564331,5.9,0.98,-6.03,8.49
9.900233745574951,4.65,1.64,-5.94,7.71
9.917840003967285,3.66,1.46,-6.38,7.49
9.921203851699829,3.84,1.05,-5.87,7.09
9.931366920471191,4.04,1.88,-4.95,6.66
9.934685945510864,3.85,2.75,-3.29,5.76
9.94871473312378,3.73,2.76,-1.9,5.01
9.951697826385498,3.36,2.17,-1.01,4.12
9.965003967285156,3.2,1.28,-0.68,3.51
9.968567848205566,3.63,-1.08,0.6,3.83
9.986539840698242,3.0,-3.78,4.32,6.47
9.987393856048584,1.05,-4.63,6.42,7.98
9.998991966247559,-0.53,-3.93,6.16,7.32
10.000316858291626,-1.04,-4.09,4.9,6.46
10.016080856323242,-0.94,-4.44,3.48,5.71
10.019804000854492,-0.8,-3.65,2.81,4.67
10.031949043273926,-0.62,-2.48,1.94,3.2
10.036149024963379,-0.42,-2.09,0.32,2.15
10.047746896743774,-0.23,-2.22,-0.15,2.23
10.05156683921814,0.31,-2.08,1.81,2.77
10.069601058959961,0.6,-1.75,3.44,3.9
10.070446968078613,0.49,-1.1,3.35,3.55
10.085629940032959,0.35,-0.58,3.19,3.26
10.087159872055054,0.37,-0.13,3.18,3.2
10.098814964294434,0.34,0.25,3.05,3.07
10.102426052093506,0.18,0.5,2.81,2.85
10.114729881286621,0.13,0.67,2.28,2.37
10.11881685256958,0.2,0.59,1.83,1.93
10.130842924118042,0.26,0.54,1.39,1.51
10.134516716003418,0.18,0.41,1.0,1.09
10.148962020874023,-0.02,0.3,0.63,0.69
10.149893760681152,-0.29,0.4,-0.07,0.49
10.168567895889282,-0.65,0.42,-0.28,0.82
10.17247200012207,-0.93,0.62,-0.43,1.19
10.18137502670288,-1.22,0.81,-0.66,1.6
10.184953927993774,-1.48,0.88,-0.92,1.95
10.195420742034912,-1.65,1.0,-1.18,2.26
10.196739912033081,-1.76,1.25,-1.35,2.54
10.214470863342285,-1.73,1.59,-1.34,2.7
10.218341827392578,-1.59,1.92,-1.21,2.77
10.235061883926392,-1.5,2.06,-0.83,2.68
10.235908031463623,-1.41,2.09,-0.41,2.55
10.253215789794922,-1.32,1.96,-0.07,2.36
10.25706672668457,-1.07,1.87,0.19,2.16
10.262564897537231,-0.79,1.89,0.41,2.08
10.26393175125122,-0.54,1.83,0.57,1.99
10.281329870223999,-0.31,1.77,0.58,1.88
10.285043716430664,-0.19,1.74,0.6,1.85
10.298801898956299,-0.24,1.62,0.51,1.71
10.302570819854736,-0.29,1.48,0.28,1.53
10.315951824188232,-0.34,1.25,0.07,1.29
10.31721305847168,-0.41,0.91,-0.19,1.01
10.332672834396362,-0.24,0.69,-0.37,0.81
10.336627960205078,0.04,0.45,-0.49,0.66
10.348275899887085,0.15,0.13,-0.59,0.62
10.35203504562378,0.32,-0.1,-0.77,0.83
10.364112854003906,0.34,-0.3,-0.99,1.08
10.367372989654541,0.64,-0.83,-1.57,1.88
10.381295919418335,1.11,-0.66,-1.96,2.34
10.384300947189331,1.66,-0.4,-2.36,2.91
10.40372085571289,2.28,0.12,-2.98,3.75
10.404960870742798,2.96,0.3,-3.54,4.62
10.413557052612305,3.38,0.96,-3.57,5.0
10.414832830429077,3.37,1.51,-2.88,4.68
10.431961059570312,3.52,1.43,-1.93,4.26
10.435322761535645,3.74,0.49,-1.41,4.02
10.449291944503784,3.7,0.0,-1.14,3.87
10.45297884941101,3.59,-0.28,-0.88,3.7
10.464637756347656,3.5,-0.49,-0.55,3.57
10.468640804290771,3.2,-0.46,-0.15,3.23
10.484793901443481,2.59,-0.38,0.28,2.63
10.485599994659424,2.07,-0.57,0.68,2.25
10.501407861709595,1.61,-0.67,1.16,2.09
10.504497051239014,1.09,-0.7,1.52,1.99
10.51274299621582,0.44,-1.02,2.04,2.32
10.514078855514526,-0.13,-1.78,2.01,2.68
10.53136682510376,-0.55,-2.55,2.08,3.33
10.535070896148682,-0.81,-3.01,2.36,3.9
10.549203872680664,-0.99,-3.26,2.76,4.38
10.552937030792236,-1.0,-3.94,3.09,5.1
10.56951904296875,-1.22,-4.79,3.34,5.96
10.570356845855713,-1.65,-5.41,3.48,6.64
10.585031032562256,-2.16,-5.9,3.53,7.2
10.58882188796997,-2.83,-5.95,3.47,7.44
10.59831690788269,-3.49,-5.0,3.57,7.06
10.601727962493896,-3.59,-3.71,3.21,6.07
10.614100933074951,-3.1,-2.78,2.54,4.87
10.617780923843384,-1.7,-1.22,3.16,3.78
10.631485939025879,1.18,1.16,1.0,1.93
10.635248899459839,1.69,4.43,-8.01,9.3
10.65375804901123,0.44,5.23,-10.37,11.62
10.655090808868408,-0.91,3.38,-5.27,6.32
10.667133808135986,-1.95,1.77,-1.26,2.91
10.670171737670898,-2.46,0.8,1.3,2.89
10.682078838348389,-1.83,0.21,3.08,3.58
10.685499906539917,-1.82,0.68,4.05,4.49
10.695417881011963,-1.97,1.09,3.63,4.27
10.696735858917236,-2.16,1.26,2.55,3.57
10.714733839035034,-2.55,1.43,2.35,3.75
10.718602895736694,-3.17,1.45,3.32,4.81
10.735139846801758,-3.05,0.43,2.97,4.27
10.7359938621521,-2.53,-0.28,2.62,3.65
10.751893043518066,-2.36,-0.56,2.64,3.58
10.75511384010315,-2.33,-0.36,3.05,3.85
10.76483678817749,-1.98,-0.34,2.79,3.43
10.768218994140625,-1.38,-0.54,2.07,2.54
10.781389713287354,-0.7,-0.65,1.26,1.58
10.785213947296143,-0.25,-0.62,0.33,0.74
10.799707889556885,-0.15,0.08,-1.06,1.07
10.802365779876709,0.28,0.7,-2.09,2.22
10.819640874862671,0.25,1.47,-3.68,3.97
10.820497035980225,0.15,2.12,-5.27,5.68
10.833109855651855,0.24,2.84,-7.11,7.65
10.836039066314697,1.46,4.02,-8.44,9.46
10.848749876022339,5.53,3.36,-7.35,9.79
10.852191925048828,6.84,2.54,-3.91,8.27
10.8644118309021,4.78,2.37,-4.54,7.0
10.868180751800537,3.34,0.9,-6.32,7.2
10.882271766662598,2.55,0.54,-6.47,6.97
10.885989904403687,2.21,0.94,-5.16,5.69
10.89739990234375,1.85,1.14,-2.56,3.35
10.898608922958374,1.8,0.54,-1.01,2.13
10.9161958694458,2.02,-0.41,-0.97,2.27
10.920150756835938,2.21,-1.94,1.01,3.1
10.931665897369385,2.13,-4.01,4.89,6.67
10.933936834335327,1.3,-4.99,5.66,7.65
10.947576999664307,0.74,-4.35,4.15,6.05
10.950561046600342,0.72,-3.48,3.06,4.68
10.964501857757568,0.34,-3.11,2.85,4.23
10.968063831329346,-0.5,-2.54,2.86,3.85
10.981587886810303,-1.15,-1.91,2.81,3.58
10.982849836349487,-1.22,-1.88,2.54,3.38
11.0020170211792,-0.91,-2.01,2.29,3.17
11.005360841751099,-0.53,-1.96,2.5,3.22
11.012608051300049,-0.07,-1.97,3.25,3.8
11.013890743255615,0.34,-1.93,4.03,4.48
11.031466960906982,0.64,-1.63,4.29,4.63
11.03505277633667,0.69,-1.27,4.29,4.52
11.047502040863037,0.55,-0.84,3.84,3.96
11.051332950592041,0.44,-0.29,2.95,2.99
11.06563687324524,0.4,0.17,1.93,1.97
11.06705379486084,0.44,0.48,0.91,1.11
11.084426879882812,0.4,0.7,-0.14,0.81
11.087886810302734,0.2,0.94,-1.0,1.38
11.095847845077515,-0.21,0.99,-1.49,1.8
11.097126007080078,-0.73,1.09,-1.62,2.08
11.114630937576294,-1.28,1.25,-1.52,2.34
11.118577003479004,-1.68,1.33,-0.97,2.35
11.132867813110352,-1.34,0.88,-0.05,1.6
11.13670301437378,-1.44,1.0,0.02,1.75
11.15463399887085,-1.82,1.45,-0.35,2.35
11.155728816986084,-1.61,1.53,-0.47,2.27
11.16346287727356,-1.34,1.76,-0.44,2.25
11.164739847183228,-1.12,2.1,-0.18,2.38
11.184494018554688,-0.9,2.39,-0.05,2.55
11.188395023345947,-0.74,2.56,-0.05,2.66
11.197680950164795,-0.72,2.64,0.02,2.73
11.201627731323242,-0.53,2.63,0.05,2.68
11.213851928710938,-0.32,2.52,0.09,2.54
11.21742582321167,-0.16,2.34,0.06,2.34
11.236618995666504,-0.04,2.14,-0.08,2.14
11.237466812133789,0.1,1.94,-0.28,1.96
11.250687837600708,0.15,1.79,-0.48,1.85
11.253377914428711,0.1,1.68,-0.83,1.87
11.2653169631958,0.07,1.51,-1.12,1.88
11.268817901611328,0.02,1.46,-1.35,1.98
11.278807878494263,0.06,1.29,-1.52,1.99
11.280101776123047,0.15,1.05,-1.49,1.82
11.29782772064209,0.4,0.79,-1.48,1.72
11.301647901535034,0.91,0.47,-1.51,1.82
11.318412780761719,1.18,0.36,-1.35,1.82
11.319109916687012,1.4,0.18,-1.05,1.75
11.334697723388672,1.8,0.17,-1.0,2.06
11.33810806274414,2.42,0.32,-1.02,2.64
11.349106788635254,2.93,0.69,-0.9,3.14
11.352567911148071,3.28,0.91,-0.45,3.43
11.36370587348938,3.42,1.02,0.06,3.56
11.365795850753784,3.27,0.84,0.5,3.41
11.382260799407959,3.15,0.41,0.8,3.27
11.386137962341309,2.84,0.09,0.94,2.99
11.401937007904053,2.38,-0.08,0.39,2.41
11.402805805206299,2.12,-0.23,-0.41,2.17
11.41918683052063,2.03,-0.32,-0.86,2.22
11.422246932983398,1.91,-0.27,-0.97,2.15
11.431469917297363,1.9,-0.29,-0.89,2.11
11.434401035308838,1.87,-0.26,-0.67,2.0
11.449810028076172,1.39,0.03,-0.16,1.39
11.451903820037842,0.75,0.12,0.4,0.85
11.465851783752441,0.17,-0.15,0.9,0.92
11.468641757965088,-0.26,-0.35,1.19,1.26
11.486687898635864,-0.61,-0.8,1.35,1.68
11.487581729888916,-0.97,-1.34,1.66,2.34
11.501317977905273,-1.14,-1.8,1.69,2.71
11.504954814910889,-1.14,-2.55,2.05,3.46
11.514449834823608,-0.95,-3.24,2.24,4.05
11.517773866653442,-0.73,-3.8,2.3,4.5
11.530534744262695,-0.72,-4.07,2.49,4.82
11.533856868743896,-0.84,-4.37,2.72,5.21
11.547456741333008,-1.01,-5.1,2.66,5.84
11.551214933395386,-1.52,-5.47,2.74,6.3
11.568198919296265,-2.13,-5.4,2.48,6.31
11.569414854049683,-2.13,-5.16,2.43,6.08
11.583255767822266,-1.2,-3.52,2.07,4.25
11.584613800048828,1.23,-0.47,-0.51,1.41
11.598155975341797,2.0,2.62,-8.49,9.1
11.601834774017334,0.36,3.4,-8.87,9.5
11.614194869995117,-1.33,2.31,-3.61,4.48
11.617518901824951,-1.91,0.89,-0.46,2.15
11.632439851760864,-2.67,0.73,1.53,3.16
11.636076927185059,-3.67,0.54,3.03,4.78
11.64782190322876,-3.45,0.39,3.23,4.74
11.649248838424683,-3.5,0.98,2.95,4.68
11.665989875793457,-3.39,1.09,2.39,4.28
11.669163942337036,-3.21,1.18,2.27,4.1
11.684244871139526,-2.8,1.1,2.4,3.84
11.688518047332764,-2.75,0.9,2.65,3.92
11.694928884506226,-2.97,0.5,2.91,4.18
11.695726871490479,-2.34,0.44,2.95,3.79
11.713527917861938,-2.06,0.63,3.02,3.7
11.716599941253662,-1.89,0.45,2.82,3.42
11.737314939498901,-1.58,0.37,2.28,2.79
11.739593029022217,-1.29,0.36,1.4,1.93
11.74673080444336,-0.97,0.19,0.4,1.06
11.74749493598938,-0.69,0.15,-0.49,0.85
11.764986038208008,0.12,0.22,-1.37,1.39
11.769054889678955,0.86,0.32,-2.05,2.24
11.781108856201172,1.29,0.66,-2.87,3.21
11.78498387336731,1.41,1.22,-4.06,4.46
11.79749083518982,2.0,2.11,-6.12,6.77
11.801331043243408,3.45,2.37,-6.95,8.11
11.819769859313965,5.8,0.98,-5.85,8.29
11.820718765258789,5.67,0.95,-4.19,7.11
11.833330869674683,4.23,1.15,-3.9,5.86
11.836309909820557,3.09,0.49,-4.44,5.43
11.84834098815918,2.49,0.03,-4.35,5.01
11.851876735687256,2.16,0.6,-2.42,3.29
11.861961841583252,1.86,1.33,-0.61,2.36
11.863297939300537,1.57,1.09,0.15,1.91
11.881130933761597,1.3,1.13,0.07,1.72
11.885064840316772,1.1,1.39,-0.01,1.77
11.901535034179688,0.9,1.12,0.46,1.5
11.902413845062256,1.33,-0.28,1.85,2.29
11.916687965393066,1.88,-2.43,3.31,4.51
11.918838024139404,1.95,-3.85,4.17,6.0
11.934109926223755,1.05,-3.57,3.13,4.86
11.938320875167847,0.23,-2.29,2.02,3.06
11.949053764343262,0.09,-1.87,1.51,2.4
11.952069759368896,-0.16,-1.85,0.75,2.0
11.96506404876709,-1.15,-1.66,-0.67,2.12
11.968490839004517,-1.93,-1.49,-1.27,2.74
11.985469818115234,-1.51,-2.01,0.29,2.53
11.986350059509277,0.21,-2.73,3.74,4.63
12.00242280960083,1.11,-2.41,5.26,5.89
12.00563383102417,0.74,-1.96,5.05,5.46
12.015590906143188,0.14,-1.55,4.51,4.77
12.019393920898438,-0.37,-1.16,3.58,3.78
12.03076696395874,-0.83,-0.62,2.79,2.97
12.034122943878174,-1.08,0.0,1.89,2.17
12.048237800598145,-0.96,0.29,0.82,1.29
12.051867008209229,-0.69,0.36,-0.17,0.79
12.064819812774658,-0.37,-0.12,-1.05,1.11
12.066222906112671,-0.47,0.28,-1.29,1.4
12.082315921783447,-0.55,0.53,-0.91,1.18
12.086184024810791,-0.59,0.62,-0.27,0.89
12.09773302078247,-0.8,0.76,-0.02,1.1
12.101417064666748,-1.12,1.1,-0.03,1.57
12.114171028137207,-1.03,0.85,0.09,1.33
12.117827892303467,-0.97,0.65,0.26,1.19
12.130683898925781,-0.99,0.62,0.19,1.18
12.134236812591553,-1.24,0.85,0.08,1.5
12.154019832611084,-1.54,1.76,-0.15,2.34
12.155334949493408,-1.07,1.75,-0.12,2.05
12.166781902313232,-0.68,1.62,-0.06,1.75
12.169986724853516,-0.6,1.53,0.02,1.64
12.182097911834717,-0.43,1.51,0.01,1.57
12.185795783996582,-0.33,1.57,0.09,1.6
12.197722911834717,-0.25,1.54,0.19,1.57
12.20132303237915,-0.13,1.51,0.06,1.51
12.215911865234375,-0.08,1.5,-0.22,1.51
12.219307899475098,-0.03,1.41,-0.51,1.49
12.232348918914795,-0.03,1.41,-0.77,1.6
12.233585834503174,-0.19,1.33,-1.11,1.74
12.250711917877197,-0.2,1.21,-1.41,1.86
12.254400730133057,-0.2,1.31,-1.66,2.12
12.264952898025513,-0.19,1.23,-1.76,2.15
12.268467903137207,-0.02,1.13,-1.77,2.1
12.28113603591919,0.17,0.99,-1.69,1.96
12.285584926605225,0.43,0.76,-1.71,1.92
12.298766851425171,0.63,0.51,-1.64,1.82
12.302406787872314,0.93,0.42,-1.42,1.74
12.315785884857178,1.47,0.36,-1.11,1.87
12.317147731781006,1.97,0.45,-0.95,2.23
12.33338189125061,2.21,0.9,-0.97,2.57
12.33751392364502,2.41,1.17,-0.86,2.81
12.348433017730713,2.62,1.29,-0.43,2.95
12.352109909057617,2.61,1.21,0.16,2.88
12.36435079574585,2.68,0.83,0.36,2.82
12.367969989776611,2.47,0.37,0.33,2.51
12.381086826324463,2.12,0.01,0.02,2.12
12.384559869766235,1.93,-0.32,-0.37,1.99
12.404514789581299,1.97,-0.6,-0.5,2.11
12.405910015106201,2.03,-0.81,-0.55,2.25
12.41327691078186,2.35,-1.61,-0.53,2.89
12.41408085823059,1.67,-0.7,-0.41,1.85
12.431829929351807,1.08,0.07,-0.3,1.12
12.435731887817383,0.75,-0.17,0.38,0.85
12.447507858276367,0.35,-0.74,1.13,1.39
12.450278759002686,-0.3,-1.07,1.59,1.93
12.464393854141235,-0.7,-1.4,1.9,2.46
12.467051982879639,-0.75,-1.83,2.03,2.83
12.487260818481445,-0.61,-2.39,2.1,3.23
12.488446712493896,-0.46,-2.9,2.31,3.73
12.499760866165161,-0.32,-3.31,2.66,4.25
12.503225803375244,-0.25,-3.78,2.79,4.7
12.514863967895508,-0.19,-4.45,2.54,5.12
12.517271041870117,-0.6,-4.86,2.41,5.45
12.531078815460205,-1.28,-5.23,2.09,5.77
12.534090995788574,-1.66,-5.24,1.87,5.8
12.549211025238037,-0.54,-4.17,1.38,4.42
12.552210807800293,2.0,-1.36,-4.66,5.25
12.569530010223389,1.75,1.47,-12.31,12.52
12.570390939712524,-0.04,1.19,-8.2,8.28
12.584290981292725,-1.13,-0.23,-1.85,2.17
12.586663722991943,-1.8,-0.37,2.0,2.71
12.598654747009277,-2.18,-0.48,3.65,4.27
12.602113723754883,-2.43,-0.35,3.76,4.49
12.614151000976562,-3.19,0.34,3.23,4.55
12.618024826049805,-3.25,0.77,2.64,4.25
12.63094687461853,-3.1,0.91,2.65,4.17
12.634853839874268,-3.24,0.5,2.94,4.4
12.653693914413452,-3.26,0.21,3.45,4.75
12.655025959014893,-2.75,0.15,3.71,4.62
12.668262958526611,-2.17,0.24,3.53,4.15
12.670547008514404,-1.61,0.4,3.23,3.63
12.681733846664429,-1.59,0.51,2.96,3.39
12.685102939605713,-1.91,0.7,2.72,3.39
12.697971820831299,-2.39,0.9,2.14,3.33
12.701628923416138,-2.69,0.97,1.35,3.16
12.71436595916748,-2.63,0.93,0.82,2.9
12.718527793884277,-2.28,1.04,0.51,2.55
12.73176097869873,-1.73,0.73,0.41,1.92
12.733176946640015,-1.01,0.55,-0.31,1.19
12.751585960388184,-0.4,0.85,-1.44,1.71
12.755059719085693,-0.13,1.32,-3.29,3.54
12.762702941894531,-0.05,2.04,-4.99,5.39
12.764012813568115,0.15,2.94,-6.16,6.82
12.782291889190674,1.51,3.6,-6.53,7.6
12.786447048187256,4.84,3.42,-4.98,7.74
12.798429012298584,7.14,1.19,-2.34,7.6
12.802395820617676,5.7,0.99,-2.06,6.14
12.815711975097656,3.64,1.07,-4.23,5.68
12.817179918289185,2.74,0.15,-5.58,6.21
12.834177017211914,2.27,-0.02,-4.7,5.21
12.837861061096191,2.25,0.82,-2.64,3.56
12.84911298751831,2.51,1.7,-1.23,3.27
12.852918863296509,2.41,1.79,-0.68,3.07
12.864178895950317,1.88,1.69,-0.53,2.58
12.868101835250854,1.84,1.34,-0.34,2.3
12.881399869918823,2.43,-0.61,0.79,2.62
12.885279893875122,2.67,-3.24,3.28,5.32
12.902200937271118,1.71,-4.3,4.93,6.76
12.903539896011353,0.28,-3.23,3.98,5.13
12.914161920547485,-0.39,-2.65,2.66,3.77
12.915479898452759,-0.54,-3.05,1.88,3.62
12.933253765106201,-1.14,-3.2,1.2,3.6
12.937106847763062,-2.12,-2.77,0.06,3.48
12.948888778686523,-2.01,-2.5,-0.42,3.23
12.95281171798706,-1.06,-2.58,1.02,2.96
12.964112758636475,0.16,-3.0,3.37,4.51
12.967804908752441,0.78,-2.94,4.75,5.64
12.988483905792236,0.67,-2.53,4.75,5.42
12.990752935409546,0.44,-2.29,4.42,4.99
12.996954917907715,0.37,-1.82,4.19,4.58
12.998141765594482,0.25,-1.12,3.69,3.86
13.015305995941162,0.06,-0.11,2.85,2.85
13.01946496963501,-0.13,0.32,2.05,2.07
13.031228065490723,-0.21,0.36,1.11,1.18
13.034801959991455,-0.52,0.38,-0.23,0.68
13.04820203781128,-0.9,0.29,-1.63,1.88
13.051837921142578,-0.98,0.45,-1.8,2.09
13.06568694114685,-0.85,0.29,-0.89,1.26
13.06687593460083,-0.85,0.42,-0.33,1.0
13.085201740264893,-0.77,0.63,-0.01,0.99
13.08802604675293,-0.59,0.49,0.26,0.8
13.095844745635986,-0.81,0.7,0.42,1.14
13.097179889678955,-0.89,0.97,0.62,1.45
13.114496946334839,-0.81,1.27,0.6,1.62
13.118113040924072,-0.92,1.53,0.61,1.88
13.132136821746826,-1.08,1.63,0.52,2.02
13.135839939117432,-1.05,1.6,0.4,1.95
13.152667045593262,-1.04,1.47,0.33,1.83
13.15344786643982,-1.05,1.37,0.16,1.73
13.168117046356201,-0.98,1.17,-0.09,1.52
13.171844959259033,-0.86,1.02,-0.41,1.39
13.179269790649414,-0.66,0.83,-0.59,1.21
13.18055772781372,-0.33,0.69,-0.6,0.97
13.197927951812744,-0.22,0.79,-0.89,1.21
13.201941967010498,0.04,0.88,-1.13,1.43
13.214504718780518,0.17,0.9,-1.2,1.5
13.218759059906006,0.26,0.75,-1.22,1.45
13.232333898544312,0.25,0.66,-1.12,1.32
13.23325777053833,0.48,0.49,-1.15,1.33
13.252163887023926,0.75,0.29,-1.29,1.52
13.25578498840332,0.86,0.13,-1.39,1.63
13.262512922286987,0.99,0.07,-1.49,1.79
13.263813018798828,1.17,0.03,-1.55,1.94
13.281232833862305,1.55,0.15,-1.44,2.12
13.284814834594727,1.85,0.46,-1.17,2.23
13.297545909881592,1.89,0.85,-1.03,2.31
13.301530838012695,1.92,1.17,-0.97,2.44
13.315719842910767,1.93,1.49,-0.66,2.52
13.316913843154907,1.93,1.73,-0.12,2.59
13.334676742553711,2.04,1.85,0.34,2.77
13.338177919387817,2.09,1.72,0.68,2.79
13.345671892166138,2.0,1.23,0.85,2.49
13.346997737884521,1.91,0.66,0.57,2.09
13.365196943283081,1.83,0.21,0.13,1.84
13.369127750396729,1.95,-0.2,-0.05,1.96
13.382240772247314,2.19,-0.41,-0.12,2.23
13.38578176498413,2.25,-0.32,-0.12,2.27
13.399069786071777,2.0,0.01,0.1,2.0
13.400516033172607,1.49,0.2,0.57,1.6
13.419025897979736,0.8,-0.01,1.03,1.3
13.422658920288086,-0.14,-0.16,1.33,1.34
13.429142951965332,-1.05,-0.18,1.35,1.71
13.430469989776611,-1.69,-0.17,1.35,2.16
13.447386741638184,-2.08,-0.47,1.12,2.4
13.451119899749756,-2.22,-0.79,0.87,2.51
13.465023040771484,-2.21,-1.05,0.8,2.57
13.468994855880737,-1.95,-1.41,0.95,2.58
13.485918998718262,-1.6,-1.76,1.01,2.58
13.486948013305664,-1.26,-2.29,1.01,2.8
13.49669075012207,-0.85,-3.18,1.06,3.45
13.498013019561768,-0.57,-4.04,1.27,4.27
13.516461849212646,-0.42,-4.69,1.57,4.96
13.520159721374512,-0.25,-4.43,0.32,4.44
13.53171992301941,0.53,-3.67,-2.46,4.44
13.535143852233887,1.06,-2.79,-3.64,4.7
13.54780387878418,0.48,-2.06,-2.76,3.47
13.551663875579834,0.01,-1.75,-0.56,1.83
13.571568012237549,-0.06,-1.69,1.02,1.97
13.572624921798706,-0.15,-1.6,1.88,2.47
13.580411911010742,-0.09,-1.11,2.03,2.31
13.581706047058105,-0.28,-0.17,2.04,2.06
13.598857879638672,-0.78,0.44,2.11,2.29
13.602357864379883,-1.37,0.37,2.07,2.5
13.615606784820557,-1.68,-0.26,1.94,2.57
13.619184970855713,-1.56,-0.73,1.91,2.57
13.631269931793213,-1.51,-0.79,1.98,2.61
13.635121822357178,-1.18,-0.81,1.78,2.28
13.64912486076355,-1.38,-0.81,1.62,2.27
13.65044093132019,-1.36,-0.74,1.24,1.98
13.667638778686523,-1.24,-0.47,0.68,1.49
13.670699834823608,-1.5,-0.47,0.4,1.62
13.681773900985718,-1.76,-0.51,0.32,1.86
13.685865879058838,-1.72,-0.47,0.25,1.8
13.697439908981323,-1.76,-0.39,0.37,1.84
13.69978380203247,-1.83,-0.36,0.44,1.91
13.71591591835022,-1.76,-0.25,0.46,1.83
13.720043897628784,-1.28,0.04,0.37,1.33
13.734814882278442,-0.6,0.43,0.35,0.81
13.735583782196045,0.16,1.11,0.1,1.12
13.74939489364624,1.21,1.62,-0.24,2.03
13.751317977905273,2.08,2.19,-0.95,3.16
13.767001867294312,2.41,2.55,-1.36,3.76
13.770841836929321,2.1,2.68,-1.14,3.59
13.78079080581665,1.39,2.39,-0.85,2.89
13.784318923950195,0.41,1.68,-0.76,1.88
13.797731876373291,-0.65,0.97,-0.38,1.22
13.80122685432434,-1.19,0.79,0.02,1.42
13.818708896636963,-1.19,0.78,-0.06,1.42
13.819357872009277,-0.68,0.54,-0.2,0.89
13.833533763885498,-0.52,0.31,-0.15,0.62
13.835590839385986,-0.03,-0.2,0.26,0.32
13.849860906600952,0.35,-0.5,0.28,0.67
13.852632999420166,0.89,-0.78,-0.02,1.18
13.865307807922363,1.56,-1.04,0.05,1.87
13.868963718414307,2.26,-1.72,1.29,3.11
13.881348848342896,2.37,-2.3,2.89,4.38
13.884860038757324,1.3,-2.16,2.82,3.78
13.903177738189697,0.24,-2.17,1.6,2.7
13.904080867767334,-0.11,-2.36,0.16,2.36
13.915641784667969,-0.03,-2.25,-0.35,2.27
13.916975975036621,0.48,-2.27,-0.01,2.32
13.932898998260498,1.25,-2.31,0.49,2.67
13.936872005462646,1.73,-2.26,1.16,3.07
13.947535037994385,1.53,-2.18,1.75,3.18
13.9511079788208,0.86,-1.7,1.88,2.67
13.965605735778809,0.11,-1.14,1.78,2.11
13.969063758850098,-0.5,-0.48,1.5,1.65
13.982334852218628,-0.72,-0.12,1.18,1.38
13.983684062957764,-0.7,0.02,0.58,0.9
14.002595901489258,-0.67,0.31,-0.2,0.76
14.006622791290283,-0.64,0.6,-0.69,1.11
14.014874935150146,-0.71,0.98,-0.69,1.39
14.018074035644531,-0.71,1.16,-0.56,1.47
14.028504848480225,-0.7,1.25,-0.33,1.47
14.029621839523315,-0.02,-0.11,0.16,0.19
14.048773765563965,-0.03,0.0,0.0,0.03
14.052311897277832,-0.02,0.06,-0.12,0.13
14.064936876296997,0.0,0.03,-0.21,0.21
14.067018032073975,0.04,-0.02,-0.28,0.28
14.083069801330566,0.07,-0.04,-0.33,0.33
14.0866379737854,0.09,-0.04,-0.37,0.38
14.098654747009277,0.07,-0.04,-0.37,0.37
14.099762916564941,0.05,-0.05,-0.37,0.37
14.116293907165527,0.01,-0.08,-0.34,0.34
14.11999797821045,-0.01,-0.1,-0.31,0.32
14.130428791046143,-0.01,-0.11,-0.25,0.27
14.133626937866211,0.02,-0.11,-0.19,0.22
14.14834976196289,0.07,-0.11,-0.17,0.21
14.151339054107666,0.1,-0.08,-0.15,0.19
14.165435791015625,0.12,-0.07,-0.15,0.2
14.168529033660889,0.14,-0.07,-0.16,0.22
14.186073780059814,0.12,-0.07,-0.17,0.21
14.186900854110718,0.1,-0.08,-0.19,0.22
14.200085878372192,0.08,-0.07,-0.22,0.24
14.203146934509277,0.1,-0.08,-0.25,0.28
14.215803861618042,0.12,-0.09,-0.28,0.31
14.219245910644531,0.14,-0.08,-0.28,0.32
14.230784893035889,0.14,-0.03,-0.27,0.3
14.234079837799072,0.12,0.01,-0.24,0.26
14.247249841690063,0.09,0.04,-0.25,0.26
14.25012993812561,0.08,0.07,-0.3,0.31
14.265744924545288,0.06,0.1,-0.28,0.3
14.266834735870361,0.05,0.15,-0.21,0.26
14.281962871551514,0.05,0.2,-0.13,0.24
14.284852027893066,0.03,0.27,-0.1,0.28
14.298328876495361,-0.06,0.31,-0.02,0.31
14.302037715911865,-0.12,0.28,0.04,0.3
14.314069747924805,-0.11,0.28,0.06,0.3
14.31715202331543,-0.07,0.28,0.15,0.32
14.330647945404053,-0.07,0.25,0.29,0.38
14.33426284790039,-0.08,0.19,0.4,0.45
14.351592063903809,-0.13,0.1,0.53,0.55
14.352851867675781,-0.19,0.03,0.62,0.64
14.362855911254883,-0.25,-0.04,0.7,0.74
14.36412787437439,-0.28,-0.08,0.75,0.8
14.381877899169922,-0.29,-0.09,0.67,0.73
14.38584280014038,-0.25,-0.08,0.5,0.56
14.397527933120728,-0.16,-0.08,0.36,0.4
14.400918006896973,-0.05,-0.07,0.27,0.28
14.414012908935547,0.01,-0.01,0.18,0.18
14.417655944824219,0.0,0.04,0.07,0.08
14.432007789611816,-0.02,0.08,-0.03,0.08
14.43285584449768,0.0,0.07,-0.05,0.08
14.450760841369629,0.04,0.01,-0.05,0.06
14.453765869140625,0.06,-0.02,-0.05,0.08
14.46226191520691,0.05,-0.04,-0.02,0.06
14.463467836380005,0.02,-0.03,0.04,0.05
14.481311798095703,-0.04,-0.04,0.1,0.11
14.485411882400513,-0.09,-0.08,0.09,0.15
14.497615814208984,-0.1,-0.11,0.06,0.16
14.50135087966919,-0.13,-0.11,0.07,0.18
14.515488862991333,-0.12,-0.13,0.04,0.18
14.51648998260498,-0.08,-0.12,-0.04,0.14
14.532302856445312,-0.08,-0.1,-0.09,0.15
14.535526752471924,-0.06,-0.05,-0.1,0.12
14.550248861312866,-0.02,-0.07,-0.1,0.12
14.553743839263916,0.01,-0.09,-0.04,0.09
14.563840866088867,0.02,-0.08,-0.01,0.08
14.56694483757019,0.02,-0.05,-0.01,0.05
14.580446720123291,0.03,-0.03,-0.06,0.07
14.583976745605469,0.07,-0.03,-0.12,0.14
14.60206389427185,0.1,-0.04,-0.14,0.17
14.603414058685303,0.12,-0.03,-0.17,0.21
14.61471700668335,0.15,-0.03,-0.2,0.25
14.615874767303467,0.2,-0.03,-0.18,0.27
14.63257384300232,0.24,-0.04,-0.16,0.29
14.636383056640625,0.23,-0.02,-0.15,0.27
14.647433757781982,0.24,-0.05,-0.16,0.29
14.650814056396484,0.25,-0.08,-0.15,0.3
14.66407299041748,0.25,-0.1,-0.17,0.31
14.66751480102539,0.23,-0.09,-0.16,0.29
14.687418937683105,0.21,-0.08,-0.13,0.25
14.688812732696533,0.18,-0.05,-0.05,0.19
14.69651985168457,0.13,-0.03,-0.04,0.13
14.697242736816406,0.11,-0.07,-0.05,0.13
14.714678764343262,0.11,-0.1,-0.03,0.15
14.718445777893066,0.12,-0.11,0.02,0.16
14.732103824615479,0.11,-0.1,0.01,0.14
14.735951900482178,0.08,-0.06,-0.04,0.1
14.747474908828735,0.06,-0.05,-0.07,0.1
14.75074291229248,0.05,-0.07,-0.05,0.09
14.76796293258667,0.05,-0.09,-0.03,0.1
14.768741846084595,0.02,-0.07,-0.04,0.08
14.783474922180176,0.01,-0.07,-0.1,0.12
14.785843849182129,0.04,-0.08,-0.17,0.19
14.800006866455078,0.07,-0.09,-0.18,0.21
14.802674770355225,0.08,-0.09,-0.18,0.21
14.813393831253052,0.06,-0.1,-0.16,0.19
14.816781044006348,0.03,-0.07,-0.11,0.13
14.831526756286621,0.02,-0.06,-0.04,0.07
14.83522081375122,0.05,-0.06,-0.03,0.08
14.85479187965393,0.07,-0.04,0.0,0.08
14.855639934539795,0.09,-0.01,0.02,0.09
14.863414764404297,0.11,0.0,0.01,0.11
14.864702939987183,0.13,-0.01,-0.01,0.13
14.883230924606323,0.13,-0.03,0.02,0.13
14.88609790802002,0.13,-0.05,0.04,0.14
14.897891998291016,0.12,-0.08,0.06,0.15
14.901880741119385,0.1,-0.12,0.07,0.17
14.914012908935547,0.11,-0.05,0.07,0.13
14.917629718780518,0.13,-0.02,0.05,0.14
14.936968803405762,0.17,0.0,0.06,0.18
14.938072919845581,0.2,-0.03,0.06,0.21
14.95081090927124,0.21,-0.01,0.07,0.22
14.95369577407837,0.21,0.03,0.04,0.21
14.964134931564331,0.21,0.01,0.09,0.22
14.966400861740112,0.2,-0.01,0.15,0.25
14.982355833053589,0.19,-0.04,0.17,0.25
14.98554277420044,0.19,-0.06,0.13,0.23
14.997338771820068,0.16,-0.04,0.09,0.18
15.001866817474365,0.15,-0.02,0.06,0.16
15.018895864486694,0.14,-0.02,0.04,0.14
15.019591808319092,0.12,-0.01,0.03,0.12
15.035492897033691,0.09,0.0,0.01,0.09
15.039025783538818,0.08,0.02,0.0,0.08
15.045811891555786,0.07,0.02,-0.02,0.07
15.047025918960571,0.05,0.01,-0.04,0.06
15.064483880996704,0.02,0.01,-0.01,0.02
15.06828498840332,-0.02,0.0,0.01,0.02
15.081056833267212,-0.06,-0.01,0.05,0.07
15.084836959838867,-0.07,-0.03,0.07,0.1
15.098618030548096,-0.07,-0.04,0.07,0.1
15.099293947219849,-0.07,-0.04,0.04,0.09
15.100028991699219,-0.11,-0.02,0.01,0.11
15.118757724761963,-0.11,-0.01,-0.01,0.11
15.121829986572266,-0.09,-0.01,-0.02,0.09
15.131927967071533,-0.07,-0.02,0.02,0.07
15.135790824890137,-0.03,-0.02,0.07,0.07
15.147234916687012,-0.01,0.02,0.08,0.08
15.151245832443237,-0.01,0.06,0.1,0.11
15.164667844772339,-0.03,0.1,0.13,0.16
15.175801753997803,-0.07,0.08,0.15,0.18
15.178810834884644,-0.12,-0.02,0.11,0.16
15.179565906524658,-0.18,-0.11,-0.01,0.21
15.19813871383667,-0.22,-0.15,-0.18,0.32
15.20151686668396,-0.23,-0.07,-0.39,0.45
15.214108943939209,-0.21,0.04,-0.6,0.63
15.217789888381958,-0.21,0.18,-0.75,0.79
15.23103380203247,-0.23,0.35,-0.87,0.96
15.235050916671753,-0.16,0.47,-0.95,1.07
15.247273921966553,-0.03,0.5,-0.81,0.95
15.256700992584229,0.01,0.68,-0.59,0.9
15.263124942779541,0.15,0.54,-0.19,0.59
15.263970851898193,0.49,0.25,0.1,0.55
15.283819913864136,0.69,0.15,0.26,0.75
15.28739595413208,0.78,0.04,0.42,0.88
15.297098875045776,0.7,-0.07,0.57,0.9
15.299412727355957,0.53,-0.28,0.7,0.92
15.314940929412842,0.41,-0.57,0.78,1.04
15.318235874176025,0.27,-0.77,0.83,1.16
15.330863952636719,0.15,-0.87,0.9,1.26
15.339781761169434,0.02,-0.85,0.93,1.26
15.34689998626709,-0.07,-0.76,0.89,1.17
15.348219871520996,-0.16,-0.66,0.77,1.02
15.366569995880127,-0.21,-0.51,0.55,0.77
15.370099067687988,-0.25,-0.36,0.31,0.53
15.380940914154053,-0.26,-0.24,0.02,0.35
15.383495807647705,-0.26,-0.14,-0.28,0.4
15.397473812103271,-0.26,-0.11,-0.6,0.66
15.401634931564331,-0.24,-0.1,-0.95,0.98
15.41443681716919,-0.24,-0.09,-1.21,1.23
15.423466920852661,-0.41,0.02,-1.38,1.43
15.42983889579773,-0.62,0.13,-1.49,1.61
15.431118965148926,-0.58,0.08,-1.52,1.62
15.44908094406128,-0.45,-0.1,-1.43,1.5
15.453577041625977,-0.24,-0.05,-1.35,1.37
15.461402893066406,-0.23,0.26,-1.51,1.54
15.46224594116211,0.18,0.45,-1.39,1.47
15.48283576965332,0.47,0.38,-0.69,0.91
15.486365795135498,0.41,0.46,-0.22,0.65
15.497436046600342,0.49,0.43,0.44,0.78
15.50746488571167,0.6,0.55,1.75,1.93
15.512715816497803,0.2,0.89,2.93,3.06
15.513553857803345,-0.31,0.95,3.66,3.79
15.533017873764038,-0.47,0.77,3.9,4.0
15.536458969116211,-0.53,0.77,3.38,3.5
15.547338962554932,-0.57,0.73,2.35,2.52
15.551151752471924,-0.32,0.39,1.25,1.34
15.564229011535645,0.16,-0.1,0.71,0.73
15.567935943603516,0.58,-0.52,0.43,0.88
15.58076000213623,0.82,-0.68,0.16,1.07
15.591627836227417,1.01,-1.12,-0.02,1.5
15.596066951751709,0.76,-1.31,-0.36,1.55
15.59686803817749,0.38,-1.22,-0.78,1.49
15.616450786590576,0.1,-1.22,-0.96,1.55
15.61830186843872,0.1,-1.17,-0.76,1.39
15.63201379776001,-0.2,-1.44,-0.73,1.62
15.635894775390625,-0.61,-1.55,-1.09,1.99
15.646975040435791,-0.79,-1.39,-1.58,2.24
15.650655746459961,-0.68,-1.08,-1.88,2.27
15.664553880691528,-0.52,-0.67,-2.33,2.47
15.674299716949463,-0.22,-0.27,-2.37,2.39
15.705307006835938,-0.07,0.16,-1.54,1.54
15.708861827850342,-0.26,0.69,-0.95,1.2
15.712210893630981,-0.51,1.07,-0.83,1.44
15.713936805725098,-0.72,1.29,-1.04,1.8
15.731770992279053,-0.76,1.45,-1.34,2.11
15.735353946685791,-0.47,1.39,-1.42,2.04
15.74804973602295,-0.1,0.86,-0.94,1.27
15.751643896102905,-0.01,0.35,-0.34,0.48
15.764490842819214,0.02,-0.01,0.08,0.08
15.773791790008545,-0.05,-0.04,0.17,0.18
15.779551029205322,-0.26,0.14,0.14,0.32
15.780863761901855,-0.43,0.26,0.37,0.62
15.798322916030884,-0.56,0.29,0.76,0.98
15.802037715911865,-0.63,0.35,0.91,1.16
15.815016746520996,-0.63,0.42,0.87,1.15
15.81828784942627,-0.72,0.56,0.91,1.28
15.83072805404663,-0.78,0.67,1.19,1.57
15.834681034088135,-0.84,0.64,1.36,1.72
15.847408771514893,-0.87,0.43,1.14,1.49
15.857856750488281,-0.82,0.29,0.79,1.17
15.8629150390625,-0.72,0.0,0.64,0.96
15.863749980926514,-0.32,-0.48,0.97,1.12
15.8837149143219,0.01,-0.33,0.97,1.02
15.887196063995361,0.18,-0.07,0.64,0.66
15.89706802368164,-0.21,-0.07,-0.35,0.41
15.899698734283447,-1.23,0.61,-1.25,1.85
15.915597915649414,-1.09,1.4,-0.9,1.98
15.919583797454834,-0.85,0.75,0.63,1.29
15.930747985839844,-0.42,0.55,1.65,1.78
15.942241907119751,-0.44,0.69,2.23,2.37
15.946245908737183,-0.79,0.9,2.63,2.88
15.947816848754883,-0.89,1.08,2.85,3.17
15.965636730194092,-1.31,1.09,2.7,3.19
15.969522953033447,-1.05,0.73,2.16,2.51
15.981091976165771,-0.28,0.66,1.34,1.51
15.98516583442688,0.06,1.06,0.53,1.18
15.997591018676758,0.16,1.58,0.4,1.63
16.001023769378662,0.33,1.52,0.58,1.66
16.013929843902588,-0.12,1.42,-0.27,1.45
16.02282190322876,-0.26,1.03,-1.07,1.5
16.03077483177185,-0.07,0.43,-2.0,2.04
16.031611919403076,0.03,-0.16,-3.04,3.04
16.04847002029419,0.01,-0.96,-2.93,3.08
16.05269694328308,0.1,-1.45,-2.38,2.78
16.064260005950928,0.08,-1.55,-1.98,2.51
16.0678288936615,-0.05,-1.55,-1.7,2.3
16.081493854522705,-0.01,-1.7,-1.75,2.43
16.08562684059143,-0.13,-1.63,-2.11,2.66
16.097918033599854,-0.43,-1.44,-2.18,2.64
16.110318899154663,-0.51,-1.12,-2.01,2.35
16.111697912216187,-0.37,-0.8,-1.57,1.8
16.133535861968994,-0.15,-0.49,-1.11,1.22
16.13687491416931,-0.14,-0.22,-0.72,0.76
16.14813494682312,-0.27,-0.1,-0.38,0.47
16.150704860687256,-0.43,-0.17,-0.15,0.48
16.165602922439575,-0.43,-0.46,-0.05,0.63
16.16811990737915,-0.42,-0.71,-0.09,0.82
16.181954860687256,-0.44,-0.75,-0.09,0.87
16.18510890007019,-0.32,-0.5,0.07,0.59
16.20368480682373,0.01,0.03,0.38,0.38
16.204999923706055,0.38,0.64,0.74,1.04
16.216114044189453,0.75,1.18,0.98,1.7
16.219672918319702,1.01,1.51,1.09,2.11
16.232000827789307,1.21,1.59,0.93,2.2
16.23547887802124,1.34,1.43,0.57,2.04
16.245558738708496,1.37,1.06,0.21,1.74
16.2468478679657,1.33,0.57,0.01,1.44
16.26457691192627,1.27,0.09,0.08,1.27
16.268202781677246,1.22,-0.35,0.36,1.31
16.282224893569946,1.22,-0.76,0.83,1.65
16.283586025238037,1.21,-1.15,1.25,2.08
16.302286863327026,1.14,-1.38,1.49,2.32
16.306251049041748,1.1,-1.48,1.51,2.38
16.31461787223816,1.2,-1.57,1.21,2.31
16.318007946014404,1.35,-1.69,0.52,2.22
16.33061194419861,1.38,-1.87,-0.27,2.33
16.333984851837158,1.21,-2.12,-0.93,2.61
16.347311973571777,0.97,-2.29,-1.51,2.9
16.350944995880127,0.67,-2.28,-2.15,3.2
16.36540699005127,0.27,-2.04,-3.02,3.65
16.366312980651855,-0.23,-1.59,-3.93,4.24
16.38429284095764,-0.61,-1.09,-4.4,4.57
16.38774299621582,-0.65,-0.57,-4.38,4.46
16.395795822143555,-0.46,-0.19,-4.33,4.35
16.3970947265625,-0.3,0.14,-4.48,4.49
16.414697885513306,-0.28,0.44,-4.61,4.63
16.41843891143799,-2.04,1.05,1.41,2.69
16.432785034179688,-1.79,1.02,0.61,2.14
16.436835765838623,-1.55,0.77,0.2,1.74
16.452857971191406,-1.57,-0.15,-0.47,1.64
16.454160928726196,-0.43,0.02,-1.14,1.21
16.466052055358887,0.41,-0.25,-2.16,2.21
16.468740940093994,0.63,-1.52,-1.47,2.2
16.483709812164307,0.19,-2.0,-0.02,2.0
16.485795974731445,-0.32,-1.53,1.63,2.25
16.49726104736328,-0.61,-1.25,3.15,3.44
16.500802993774414,-0.82,-1.02,3.9,4.11
16.51372790336609,-0.87,-0.81,3.84,4.01
16.517026901245117,-1.11,-0.64,4.04,4.23
16.532294750213623,-1.35,-0.49,4.16,4.4
16.533201932907104,-1.44,-0.43,3.6,3.9
16.55210590362549,-1.3,0.91,2.91,3.31
16.555743932724,-1.29,2.96,1.95,3.77
16.564510822296143,-1.46,3.72,0.85,4.08
16.567341804504395,-1.12,3.95,-0.05,4.1
16.582334995269775,0.37,2.27,-1.41,2.69
16.585216999053955,1.35,1.82,-2.78,3.58
16.59705090522766,2.31,1.44,-2.21,3.5
16.60044002532959,2.55,1.42,-1.86,3.46
16.62100076675415,2.2,1.87,-1.76,3.38
16.621901988983154,1.25,2.04,-2.31,3.32
16.632694721221924,0.77,0.69,-2.01,2.26
16.63575792312622,0.08,0.19,-0.53,0.56
16.648438930511475,-0.2,0.24,0.95,1.0
16.65228796005249,-0.14,0.21,1.9,1.91
16.664731979370117,-0.17,-0.11,2.0,2.01
16.668522834777832,-0.25,-0.36,1.71,1.76
16.680508852005005,-0.37,-0.53,1.43,1.56
16.684346914291382,-0.53,-0.6,1.42,1.63
16.701615810394287,-0.72,-1.34,1.04,1.84
16.70248794555664,-1.33,-1.74,0.07,2.19
16.716835021972656,-1.94,-1.03,1.23,2.51
16.7204327583313,-2.33,-0.78,0.84,2.59
16.733247756958008,-2.45,-0.21,0.73,2.56
16.73528289794922,-2.2,-0.4,0.47,2.28
16.747896909713745,-1.8,-0.81,-0.2,1.98
16.75145673751831,-1.78,-0.71,-0.41,1.95
16.764370918273926,-1.67,-0.5,-0.91,1.96
16.76739192008972,-1.07,0.13,-0.05,1.07
16.78202199935913,-0.62,0.66,0.02,0.9
16.78294086456299,-0.23,0.56,-0.49,0.77
16.80010485649109,0.16,0.18,-0.6,0.64
16.803661823272705,0.71,-0.11,-0.19,0.74
16.81435203552246,0.94,-0.43,0.28,1.07
16.81658387184143,0.75,-0.63,0.13,0.98
16.832494735717773,0.59,-0.4,-0.25,0.75
16.836308002471924,0.54,-0.09,-0.31,0.62
16.84744882583618,0.57,0.03,-0.3,0.64
16.851172924041748,0.66,0.08,-0.44,0.79
16.865591049194336,0.76,0.11,-0.64,0.99
16.867015838623047,0.79,0.16,-0.8,1.13
16.882667064666748,0.74,0.19,-0.9,1.18
16.886051893234253,0.65,0.14,-0.94,1.15
16.898135900497437,0.54,0.06,-0.91,1.05
16.902159929275513,0.4,-0.05,-0.75,0.85
16.914597988128662,0.15,0.03,-0.58,0.59
16.91842293739319,-0.05,0.0,-0.84,0.84
16.93084192276001,-0.09,-0.08,-0.61,0.62
16.9334077835083,-0.07,-0.23,-0.13,0.27
16.952130794525146,-0.14,-0.29,-0.18,0.36
16.953464031219482,-0.16,-0.21,-0.19,0.32
16.967025756835938,-0.11,-0.17,0.03,0.2
16.968317985534668,-0.15,-0.09,-0.03,0.17
16.982025861740112,-0.06,-0.03,-0.21,0.22
16.985949993133545,0.03,-0.03,0.05,0.06
16.99793791770935,0.02,0.0,0.13,0.13
17.00119972229004,-0.08,-0.04,-0.31,0.32
17.015683889389038,0.08,-0.07,-0.14,0.17
17.019309997558594,0.16,-0.12,0.07,0.21
17.03065586090088,0.17,-0.16,0.09,0.25
17.032104969024658,0.16,-0.17,0.07,0.24
17.050063848495483,0.21,-0.03,0.22,0.3
17.05381679534912,0.2,0.1,0.33,0.39
17.06417989730835,0.08,0.11,0.16,0.21
17.065379858016968,0.05,0.11,0.18,0.21
17.08053684234619,0.0,0.02,0.27,0.27
17.084467887878418,-0.09,-0.15,0.23,0.28
17.097877025604248,0.02,-0.24,0.33,0.4
17.101399898529053,-0.17,-0.24,0.14,0.32
17.114791870117188,-0.05,-0.11,0.13,0.17
17.116052865982056,-0.07,-0.07,0.12,0.15
17.13513994216919,-0.08,-0.03,0.05,0.09
17.137999057769775,-0.07,0.03,0.08,0.11
17.145671844482422,-0.06,0.17,0.05,0.18
17.146960735321045,-0.01,0.16,0.03,0.16
17.16574788093567,-0.05,-0.03,-0.19,0.19
17.169264793395996,0.08,0.03,-0.14,0.16
17.18067979812622,0.15,0.1,-0.01,0.18
17.184174060821533,0.21,0.22,0.03,0.3
17.201688766479492,0.15,0.26,0.15,0.33
17.202523946762085,0.0,0.02,-0.01,0.02
17.218364715576172,0.03,0.05,0.04,0.07
17.222017765045166,0.01,0.04,0.01,0.04
17.229197025299072,-0.01,0.0,-0.03,0.03
17.230352878570557,-0.02,0.01,-0.03,0.03
17.247829914093018,-0.02,-0.04,-0.03,0.05
17.25081992149353,0.08,0.0,-0.03,0.08
17.264465808868408,0.26,0.03,-0.01,0.26
17.268407821655273,0.44,-0.06,-0.22,0.49
17.287889003753662,0.29,-0.29,0.25,0.48
17.28879189491272,-0.09,-0.1,0.71,0.72
17.29699683189392,0.01,0.18,0.61,0.63
17.298279762268066,0.18,0.02,0.24,0.3
17.317376852035522,0.38,-0.15,-0.1,0.42
17.321098804473877,0.42,-0.23,-0.43,0.64
17.331161975860596,0.33,-0.4,-0.56,0.76
17.334985733032227,0.16,-0.32,-0.76,0.84
17.347259998321533,0.02,-0.16,-0.69,0.7
17.350019931793213,-0.01,-0.01,-0.71,0.71
17.37178373336792,0.01,0.03,-0.79,0.79
17.373066902160645,-0.02,0.0,-0.68,0.68
17.382407903671265,-0.17,0.05,-0.26,0.31
17.385953903198242,-0.45,0.32,-0.16,0.57
17.399858951568604,-0.85,0.41,0.21,0.96
17.403326988220215,-0.94,0.22,0.73,1.21
17.415202856063843,-0.66,0.06,0.6,0.89
17.418248891830444,-0.45,-0.14,0.44,0.64
17.43044090270996,-0.3,-0.25,0.43,0.58
17.4339759349823,-0.24,-0.21,0.24,0.39
17.453980922698975,-0.25,-0.21,0.19,0.37
17.455299854278564,-0.3,-0.15,0.26,0.42
17.462989807128906,-0.38,-0.03,0.22,0.44
17.46384572982788,-0.34,-0.09,0.17,0.39
17.48158884048462,-0.24,-0.02,0.04,0.24
17.48565101623535,-0.15,0.05,-0.03,0.16
17.497272968292236,-0.07,0.1,-0.11,0.16
17.500545978546143,0.06,0.09,-0.11,0.15
17.514986991882324,0.21,0.06,-0.1,0.24
17.51888084411621,0.21,0.11,0.08,0.25
17.528029918670654,0.16,0.22,0.34,0.43
17.52894401550293,0.24,0.24,0.33,0.47
17.551243782043457,0.28,0.23,0.15,0.39
17.555028915405273,0.29,0.22,0.04,0.36
17.564430713653564,0.28,0.18,-0.04,0.33
17.567280769348145,0.21,0.15,-0.09,0.27
17.58082890510559,0.11,0.12,-0.13,0.2
17.584008932113647,0.03,0.09,-0.16,0.18
17.598968029022217,-0.02,0.08,-0.11,0.13
17.60127091407776,-0.08,0.12,-0.04,0.14
17.61938786506653,-0.07,0.08,-0.04,0.11
17.620646953582764,-0.06,-0.01,-0.07,0.09
17.6333749294281,-0.05,-0.12,-0.05,0.13
17.634562969207764,-0.05,-0.2,-0.09,0.22
17.649245738983154,-0.06,-0.12,-0.2,0.24
17.653040885925293,-0.08,-0.09,-0.29,0.31
17.664119720458984,-0.02,-0.07,-0.29,0.29
17.66797399520874,0.02,-0.02,-0.28,0.28
17.679962873458862,0.01,0.0,-0.23,0.23
17.682284832000732,0.0,-0.02,-0.21,0.21
17.707274913787842,-0.02,-0.06,-0.17,0.18
17.709604740142822,-0.01,-0.11,-0.15,0.18
17.712652921676636,-0.01,-0.13,-0.17,0.21
17.732916831970215,-0.03,-0.11,-0.12,0.16
17.73670792579651,-0.05,-0.01,-0.05,0.07
17.74893593788147,-0.05,0.06,-0.07,0.1
17.75222682952881,-0.03,0.07,-0.09,0.11
17.764012813568115,-0.01,0.1,-0.09,0.13
17.76769781112671,-0.04,0.15,-0.08,0.17
17.780099868774414,-0.07,0.16,-0.05,0.18
17.790068864822388,-0.09,0.14,-0.02,0.16
17.79619598388672,-0.14,0.1,0.01,0.17
17.79703998565674,-0.15,0.05,0.04,0.16
17.81473684310913,-0.13,0.03,0.07,0.15
17.81824493408203,-0.13,0.02,0.09,0.15
17.831846714019775,-0.12,0.02,0.13,0.17
17.834951877593994,-0.1,0.0,0.13,0.16
17.837556838989258,-0.08,-0.07,0.11,0.15
17.844937801361084,-0.08,-0.1,0.07,0.14
17.846107006072998,-0.07,-0.11,0.02,0.13
17.8713538646698,-0.06,-0.1,0.0,0.11
17.87224578857422,-0.06,-0.07,0.03,0.09
17.879868984222412,-0.06,-0.05,0.03,0.08
17.880745887756348,-0.04,-0.07,0.03,0.08
17.89808988571167,-0.03,-0.09,0.04,0.1
17.90160083770752,-0.02,-0.07,0.04,0.08
17.914196968078613,-0.04,-0.04,0.05,0.07
17.918287754058838,-0.04,0.01,0.1,0.1
17.931619882583618,-0.02,0.06,0.07,0.09
17.935359001159668,0.0,0.05,-0.01,0.05
17.94888186454773,0.04,-0.01,-0.03,0.05
17.94992971420288,0.04,-0.02,-0.04,0.06
17.965819835662842,0.06,0.0,-0.06,0.08
17.96945095062256,0.08,0.05,-0.11,0.14
17.98207378387451,0.1,0.07,-0.15,0.19
17.985256910324097,0.09,0.08,-0.17,0.2
17.998225927352905,0.1,0.08,-0.19,0.22
18.001713752746582,0.11,0.08,-0.16,0.21
18.013975858688354,0.13,0.07,-0.17,0.22
18.017611980438232,0.13,0.06,-0.14,0.2
18.03697395324707,0.11,0.04,-0.12,0.16
18.03830575942993,0.08,0.01,-0.1,0.12
18.050338745117188,0.06,0.01,-0.11,0.12
18.052932739257812,0.04,0.01,-0.09,0.09
18.064432859420776,0.03,0.03,-0.07,0.08
18.067468881607056,0.02,0.06,-0.06,0.08
18.081888914108276,-0.01,0.1,-0.02,0.1
18.08594799041748,0.0,0.12,-0.04,0.12
18.0974440574646,0.03,0.15,-0.1,0.18
18.100921869277954,0.02,0.2,-0.1,0.22
18.115474939346313,0.1,0.14,0.04,0.17
18.116737842559814,0.21,0.18,0.03,0.27
18.13439702987671,0.31,0.23,-0.01,0.38
18.1375949382782,0.49,0.21,-0.08,0.53
18.145643711090088,0.66,0.11,-0.14,0.68
18.146955013275146,0.65,0.06,-0.19,0.67
18.164456844329834,0.74,-0.18,-0.52,0.92
18.16848587989807,0.81,-0.45,-0.82,1.23
18.18201184272766,0.86,-0.69,-0.96,1.46
18.185792922973633,0.89,-0.96,-0.97,1.62
18.20253086090088,0.66,-1.3,-0.77,1.64
18.203378915786743,0.39,-1.69,-1.01,2.0
18.217800855636597,0.46,-2.33,-1.21,2.66
18.22150683403015,0.49,-2.69,-1.7,3.21
18.229857921600342,0.25,-3.32,-2.3,4.04
18.231164932250977,0.08,-3.26,-2.96,4.4
18.247917890548706,-0.21,-3.08,-2.66,4.07
18.251628875732422,-0.59,-2.88,-1.53,3.31
18.264495849609375,-0.75,-2.57,-0.34,2.69
18.26812505722046,-0.8,-1.91,0.31,2.09
18.282184839248657,-1.02,-0.97,0.0,1.4
18.283284902572632,-1.34,-0.22,-0.55,1.46
18.30183172225952,-1.5,0.1,-0.72,1.66
18.304746866226196,-1.53,0.3,-1.09,1.9
18.314651012420654,-1.46,0.32,-1.49,2.11
18.317183017730713,-1.32,0.32,-1.89,2.32
18.332419872283936,-1.07,0.05,-1.98,2.25
18.334519863128662,-1.2,0.19,-1.68,2.07
18.347206830978394,-0.84,0.64,-0.73,1.28
18.350473880767822,-0.43,0.9,-0.25,1.02
18.37149691581726,-0.3,1.47,-0.21,1.51
18.372848987579346,-0.05,1.6,-0.57,1.69
18.38045597076416,0.09,1.3,-1.31,1.84
18.38238286972046,0.25,0.89,-1.69,1.92
18.398738861083984,0.51,0.53,-1.75,1.89
18.40285587310791,0.73,0.37,-1.83,2.0
18.41472101211548,0.74,0.47,-1.95,2.13
18.41837501525879,0.72,0.61,-2.03,2.23
18.432069778442383,0.84,0.07,-1.89,2.06
18.435406923294067,0.4,-1.16,1.91,2.27
18.448791027069092,0.26,-1.44,4.18,4.42
18.450193881988525,1.02,-1.74,4.19,4.65
18.466737747192383,1.81,-2.4,2.11,3.67
18.470468997955322,2.08,-1.87,-0.11,2.79
18.481400966644287,1.84,-0.41,-1.76,2.57
18.484923839569092,1.57,0.19,-3.01,3.4
18.497344970703125,0.76,-0.1,-1.54,1.72
18.50145196914673,0.34,-0.44,-0.39,0.67
18.515002727508545,1.34,-0.79,-1.41,2.09
18.51871395111084,1.48,-0.37,-1.25,1.97
18.535813808441162,1.2,0.15,-1.73,2.11
18.53666090965271,1.0,0.24,-1.51,1.82
18.551146030426025,0.74,0.4,-0.54,0.99
18.55465078353882,0.87,0.16,-0.17,0.9
18.565113067626953,1.2,-0.32,-0.16,1.25
18.56908392906189,1.29,-0.65,-0.26,1.46
18.578660011291504,1.31,-1.13,-0.47,1.79
18.579957962036133,1.28,-2.29,-0.77,2.73
18.597732067108154,0.69,-3.23,0.1,3.3
18.601428985595703,-0.26,-3.68,0.26,3.69
18.615525722503662,-0.95,-3.42,0.73,3.62
18.61696195602417,-0.79,-3.33,1.32,3.66
18.63514471054077,-1.36,-3.35,0.63,3.67
18.638511896133423,-2.27,-3.17,0.34,3.91
18.64794397354126,-2.3,-3.3,0.07,4.02
18.651187896728516,-2.33,-3.27,0.45,4.04
18.66390371322632,-2.4,-2.94,1.03,3.93
18.66722297668457,-2.64,-2.17,0.67,3.48
18.681360721588135,-2.81,-1.14,0.27,3.04
18.684584856033325,-2.62,-0.36,-0.1,2.64
18.703229904174805,-2.47,-0.39,-0.57,2.56
18.70409083366394,-2.1,-0.46,-0.87,2.31
18.715137004852295,-1.79,-0.06,-0.68,1.91
18.716485023498535,-1.52,0.46,-0.14,1.59
18.732112884521484,-1.33,0.75,0.45,1.59
18.735278844833374,-1.26,0.93,0.67,1.7
18.747694969177246,-1.19,1.11,1.29,2.07
18.751253843307495,-1.1,1.45,1.84,2.58
18.765605926513672,-0.92,1.86,2.01,2.88
18.769290924072266,-0.58,2.16,1.97,2.98
18.782433032989502,-0.16,2.27,1.37,2.65
18.783939838409424,0.35,1.95,0.91,2.18
18.799370765686035,0.75,1.46,0.78,1.81
18.803233861923218,0.92,0.77,1.09,1.62
18.81490993499756,0.69,0.29,1.64,1.8
18.818673849105835,0.41,-0.07,1.82,1.86
18.830825805664062,0.42,-0.71,1.7,1.88
18.83454704284668,0.96,0.6,1.19,1.64
18.84731674194336,2.51,0.72,-2.11,3.35
18.851186752319336,3.16,0.18,-3.38,4.63
18.868496894836426,2.43,-0.74,-4.78,5.41
18.86933183670044,1.74,-1.38,-3.67,4.28
18.886029720306396,2.45,-0.04,-0.63,2.53
18.889200925827026,2.74,0.89,-0.99,3.04
18.89583396911621,2.51,-0.28,-1.48,2.92
18.897136926651,2.36,-1.72,-2.05,3.56
18.915432929992676,2.21,-1.87,-0.19,2.9
18.919128894805908,2.3,-1.34,0.94,2.82
18.93068504333496,2.63,-1.23,1.09,3.1
18.93456506729126,2.83,-1.56,0.71,3.3
18.952826976776123,2.65,-2.11,0.33,3.4
18.953600883483887,2.03,-2.84,0.5,3.52
18.96533489227295,1.25,-4.41,1.87,4.95
18.966622829437256,0.25,-5.75,3.42,6.69
18.981818914413452,-0.59,-5.56,3.96,6.85
18.98556900024414,-0.91,-4.82,2.98,5.73
18.997739791870117,-0.85,-4.95,1.82,5.34
19.00156879425049,-1.05,-5.36,1.41,5.64
19.013995885849,-1.44,-5.3,1.66,5.73
19.01790189743042,-1.58,-4.77,1.47,5.23
19.031850814819336,-1.62,-4.25,0.96,4.64
19.033123016357422,-1.62,-3.67,0.62,4.05
19.051658868789673,-1.57,-2.88,0.32,3.29
19.0549578666687,-1.44,-2.08,-0.39,2.55
19.065672874450684,-1.28,-1.33,-1.16,2.18
19.06941294670105,-1.62,-0.38,-1.02,1.95
19.080466747283936,-2.26,0.93,-0.48,2.49
19.083088874816895,-2.3,2.04,-1.07,3.25
19.09867787361145,-1.89,2.73,-1.58,3.67
19.102540016174316,-1.41,3.13,-1.65,3.8
19.114038944244385,-1.01,3.27,-1.62,3.78
19.114963054656982,-0.65,3.29,-1.89,3.84
19.13561487197876,-0.23,3.2,-2.43,4.02
19.138075828552246,0.15,3.24,-2.52,4.1
19.14551091194153,0.46,3.37,-2.31,4.11
19.14679479598999,0.66,3.53,-1.97,4.09
19.164434909820557,0.76,3.8,-1.63,4.2
19.168221950531006,0.85,3.99,-1.43,4.32
19.180366039276123,0.96,4.05,-1.2,4.33
19.184510946273804,0.94,4.01,-1.04,4.24
19.199007034301758,0.83,3.98,-0.9,4.16
19.200308799743652,0.83,4.1,-0.81,4.26
19.21815586090088,1.1,4.58,-0.72,4.76
19.22206687927246,1.39,4.78,-0.29,4.98
19.231477737426758,1.67,4.67,0.3,4.96
19.235086917877197,1.99,4.48,0.87,4.97
19.24725103378296,2.18,4.25,1.04,4.88
19.2496919631958,2.38,3.95,0.72,4.66
19.264132976531982,2.6,3.47,0.33,4.34
19.266550064086914,2.63,3.03,0.41,4.03
19.28566288948059,2.49,2.64,0.82,3.72
19.286963939666748,2.2,2.29,1.14,3.37
19.29680585861206,1.88,2.07,1.27,3.07
19.298017978668213,1.47,1.96,1.21,2.73
19.31481695175171,1.03,2.05,1.14,2.56
19.318646907806396,0.74,2.18,1.07,2.53
19.331027030944824,0.57,2.28,1.12,2.6
19.334913730621338,0.36,2.55,2.42,3.53
19.347944736480713,-0.03,2.95,4.19,5.12
19.35158681869507,-0.25,2.24,2.77,3.57
19.36395788192749,-0.27,0.76,0.58,0.99
19.365331888198853,-0.25,0.03,-0.46,0.52
19.386927843093872,-0.19,0.17,-1.05,1.08
19.390984058380127,0.23,0.82,-1.34,1.58
19.397360801696777,0.03,0.99,-0.82,1.28
19.400514841079712,-0.95,1.58,2.01,2.72
19.414718866348267,-0.35,2.77,1.32,3.08
19.418819904327393,-0.09,2.43,-0.41,2.46
19.43039584159851,0.03,1.72,-0.28,1.74
19.434233903884888,0.39,1.29,-0.18,1.35
19.453025817871094,0.58,0.93,0.11,1.1
19.453866958618164,0.51,1.12,0.49,1.32
19.46682071685791,0.25,1.88,0.5,1.96
19.469727993011475,0.21,2.45,-0.15,2.46
19.481996059417725,0.44,2.6,-0.84,2.76
19.485450744628906,0.75,2.53,-0.6,2.7
19.494972944259644,1.27,1.88,-0.18,2.27
19.496330738067627,1.42,1.03,0.39,1.79
19.515470027923584,1.06,0.11,0.6,1.22
19.519274711608887,0.82,-0.02,0.45,0.93
19.532100915908813,0.96,0.18,-0.28,1.01
19.533429861068726,1.32,0.1,-0.96,1.63
19.54870080947876,1.51,0.16,-1.02,1.82
19.55092477798462,1.3,-0.02,-0.86,1.55
19.566847801208496,0.44,0.46,0.81,1.03
19.56879186630249,-0.68,2.03,3.18,3.83
19.580286979675293,-1.01,3.35,3.37,4.85
19.58395791053772,-0.55,3.62,1.54,3.97
19.59686279296875,0.18,3.12,-0.36,3.14
19.600034713745117,0.64,2.49,-1.0,2.75
19.61913776397705,0.67,1.89,-0.6,2.09
19.620090007781982,0.53,1.35,0.12,1.45
19.633959770202637,0.54,0.95,0.72,1.3
19.63604497909546,0.67,0.49,0.65,1.05
19.6484317779541,0.82,-0.01,0.4,0.91
19.65175199508667,0.88,-0.51,0.13,1.02
19.661530017852783,0.8,-0.85,-0.01,1.16
19.662850856781006,0.47,-0.77,0.54,1.05
19.680957794189453,-0.19,0.27,1.91,1.93
19.685457944869995,-0.44,1.45,1.93,2.45
19.70076584815979,-0.19,1.68,0.78,1.86
19.701601028442383,0.09,1.21,-0.27,1.24
19.71461582183838,0.2,0.61,-0.9,1.1
19.717981815338135,0.07,0.2,-1.13,1.14
19.73154091835022,0.02,-0.11,-1.07,1.07
19.735134840011597,0.14,-0.4,-1.16,1.23
19.747140884399414,0.4,-0.64,-1.32,1.52
19.749892711639404,0.52,-0.74,-1.06,1.39
19.764092922210693,0.29,-0.68,-0.36,0.82
19.76773190498352,0.13,-0.75,0.02,0.76
19.781160831451416,0.03,-0.89,0.31,0.94
19.782533884048462,0.1,-1.19,0.22,1.21
19.800206899642944,0.3,-1.49,-0.15,1.52
19.80353283882141,0.42,-1.72,-0.28,1.79
19.812140941619873,0.41,-1.77,-0.27,1.83
19.81344485282898,0.35,-1.65,-0.24,1.7
19.830646991729736,0.11,-1.62,-0.09,1.62
19.834417819976807,-0.07,-1.84,-0.28,1.86
19.848191738128662,-0.15,-1.92,-0.68,2.04
19.85176181793213,-0.24,-1.95,-1.51,2.47
19.86530876159668,-0.36,-1.85,-2.14,2.85
19.866740942001343,-0.37,-1.6,-2.71,3.16
19.88196897506714,-0.23,-1.37,-3.01,3.31
19.88598394393921,0.05,-1.16,-2.97,3.18
19.897575855255127,0.25,-1.15,-2.88,3.11
19.90139675140381,-0.23,-0.77,-1.44,1.64
19.913904905319214,-0.81,0.18,0.22,0.85
19.917738914489746,-0.82,0.91,0.37,1.27
19.930896759033203,-0.41,1.14,0.13,1.21
19.934892892837524,-0.29,1.1,0.36,1.19
19.948750972747803,-0.25,1.18,0.67,1.37
19.95016098022461,-0.1,1.46,0.82,1.67
19.966622829437256,0.1,1.72,1.13,2.06
19.96865487098694,-0.04,1.82,2.1,2.77
19.983131885528564,0.1,2.01,2.31,3.06
19.986104011535645,0.62,2.02,1.47,2.57
19.997343063354492,0.85,1.97,1.56,2.65
20.001322746276855,1.08,1.93,2.12,3.06
20.0133957862854,1.29,1.64,2.19,3.02
20.015873908996582,1.31,1.19,1.95,2.63
20.038017749786377,1.13,0.88,1.55,2.11
20.03934383392334,0.87,0.66,1.0,1.48
20.048223972320557,0.52,0.46,0.91,1.14
20.05068874359131,0.14,0.25,0.97,1.01
20.067158937454224,-0.19,-0.1,0.82,0.84
20.070907831192017,-0.42,-0.52,0.63,0.91
20.08047890663147,-0.53,-0.87,0.75,1.26
20.08357572555542,-0.69,-1.23,0.89,1.66
20.097115993499756,-0.96,-1.56,0.66,1.94
20.10121202468872,-1.6,-1.72,0.35,2.37
20.119950771331787,-2.28,-1.86,0.26,2.95
20.120800971984863,-2.66,-2.04,0.12,3.35
20.1333909034729,-2.8,-2.16,-0.44,3.56
20.136399745941162,-2.69,-2.23,-1.31,3.73
20.147794723510742,-2.5,-2.23,-1.91,3.85
20.151226043701172,-2.35,-1.97,-2.0,3.66
20.161980867385864,-1.94,-1.42,-2.34,3.35
20.163318872451782,-1.35,-0.9,-2.68,3.13
20.18090581893921,-0.81,-0.37,-2.53,2.68
20.185277938842773,-0.31,0.16,-2.08,2.1
20.20140504837036,0.03,0.71,-1.25,1.43
20.202270030975342,0.39,1.13,-0.84,1.46
20.217607021331787,0.63,1.46,-0.95,1.85
20.22096300125122,0.62,1.98,-0.84,2.23
20.231727838516235,0.54,2.54,-0.36,2.62
20.23537302017212,0.7,2.67,-0.49,2.8
20.24506378173828,0.84,2.77,-0.57,2.95
20.24636173248291,1.07,2.97,-0.69,3.23
20.264349937438965,1.4,2.92,-0.72,3.31
20.268105030059814,1.75,2.81,-0.87,3.42
20.28435492515564,1.98,2.88,-1.09,3.66
20.28522491455078,1.89,2.85,-1.1,3.59
20.299206733703613,1.64,2.86,-1.2,3.5
20.301418781280518,1.29,2.9,-1.49,3.5
20.316744804382324,1.0,2.7,-1.61,3.29
20.320817947387695,0.95,2.24,-1.31,2.76
20.330554008483887,1.07,1.41,-0.55,1.85
20.33414387702942,1.05,0.72,0.08,1.27
20.347693920135498,0.81,0.54,0.39,1.04
20.351253986358643,0.45,0.69,0.32,0.88
20.370014905929565,0.11,1.0,0.19,1.02
20.37081289291382,-0.21,1.41,0.22,1.44
20.383285999298096,-0.51,1.78,0.38,1.89
20.386295795440674,-0.74,2.08,0.52,2.26
20.398205757141113,-0.88,2.09,0.93,2.45
20.401495933532715,-0.57,1.65,1.4,2.23
20.41416072845459,-0.05,1.29,2.23,2.57
20.417646884918213,0.41,1.28,1.9,2.32
20.43065881729126,0.45,1.39,1.57,2.14
20.434332847595215,0.21,1.68,2.23,2.79
20.447926998138428,0.11,1.65,2.78,3.23
20.449347019195557,-0.23,1.14,3.56,3.74
20.467808723449707,-0.31,0.85,4.32,4.41
20.471147060394287,0.09,-0.13,4.1,4.1
20.48139476776123,-0.28,-1.49,2.98,3.34
20.485034942626953,-0.18,-7.08,1.29,7.19
20.497253894805908,1.71,-14.05,-0.72,14.17
20.50090193748474,2.93,-12.23,4.86,13.48
20.51398277282715,1.86,-5.5,7.95,9.84
20.517676830291748,-0.29,-1.58,3.27,3.64
20.531142711639404,-1.12,1.63,-1.39,2.41
20.5325927734375,-0.77,2.38,-8.12,8.49
20.54996085166931,-3.46,2.07,-3.04,5.04
20.55342984199524,-3.08,1.88,-0.13,3.61
20.56654191017151,-0.99,2.33,0.89,2.68
20.570273876190186,1.38,2.22,1.1,2.83
20.580537796020508,2.58,1.42,0.2,2.95
20.583947896957397,2.95,0.48,0.52,3.03
20.597354888916016,2.1,-0.17,1.05,2.35
20.6008620262146,0.01,-0.5,0.59,0.77
20.618440866470337,-1.04,-0.39,-0.4,1.18
20.619762897491455,-0.97,0.63,-1.01,1.53
20.630347728729248,-0.65,1.42,-1.21,1.97
20.63167381286621,-0.38,1.63,-0.88,1.89
20.64994192123413,-0.35,1.79,-0.68,1.94
20.6539249420166,-1.06,1.91,-0.85,2.34
20.664018869400024,-1.38,1.62,-1.46,2.58
20.66702175140381,-0.84,1.46,-1.39,2.18
20.680930852890015,0.18,2.29,-0.44,2.33
20.684024810791016,1.74,2.1,-0.1,2.72
20.703495025634766,2.13,0.14,-0.11,2.13
20.704792022705078,1.53,-2.09,-0.09,2.59
20.71287488937378,0.64,-8.11,4.92,9.5
20.714046955108643,-0.43,-15.44,13.23,20.33
20.731852054595947,-1.26,0.56,4.01,4.24
20.73568892478943,-3.72,5.15,-1.86,6.61
20.748600006103516,-4.62,1.26,-0.6,4.82
20.75222682952881,-3.52,-0.27,-0.86,3.63
20.763661861419678,-2.79,0.43,-0.96,2.98
20.767509937286377,-1.69,0.51,-0.5,1.83
20.785552978515625,-0.47,1.94,-1.05,2.25
20.786406993865967,1.24,2.87,-0.41,3.15
20.800403833389282,2.01,2.06,0.86,3.0
20.802817821502686,1.49,0.85,1.08,2.02
20.815642833709717,0.53,0.31,0.21,0.64
20.818785905838013,-0.3,0.37,-0.13,0.49
20.83123779296875,0.0,1.53,0.81,1.73
20.835505962371826,0.7,2.11,0.7,2.33
20.845011711120605,1.83,-0.21,1.05,2.12
20.846363067626953,1.72,-2.08,1.78,3.23
20.871593952178955,0.83,-1.3,1.72,2.31
20.872883796691895,0.44,0.34,1.21,1.33
20.882147789001465,0.54,-0.06,0.11,0.55
20.88547992706299,-0.51,0.01,-0.64,0.81
20.90015983581543,-1.39,0.12,-2.54,2.89
20.90349793434143,-2.2,0.36,-3.51,4.15
20.913622856140137,-1.83,1.22,-2.1,3.04
20.917049884796143,0.14,0.61,-0.01,0.62
20.9306960105896,0.76,0.83,0.85,1.41
20.934316873550415,1.95,0.16,1.36,2.38
20.948662757873535,2.61,-1.14,1.54,3.23
20.94957971572876,2.0,-0.13,1.28,2.37
20.96906805038452,1.36,1.31,-0.04,1.88
20.973336935043335,0.79,0.78,-0.43,1.19
20.978857040405273,0.97,-2.05,0.1,2.27
20.980177879333496,1.13,-2.64,1.14,3.08
20.997440814971924,1.56,-0.5,0.88,1.85
21.001330852508545,1.35,-0.41,0.45,1.48
21.014047861099243,1.26,-0.05,-0.27,1.28
21.017849922180176,1.26,0.19,-1.03,1.63
21.032038927078247,1.32,-0.35,-0.56,1.47
21.033462047576904,1.83,-0.79,1.27,2.36
21.051543712615967,1.18,-1.59,4.03,4.49
21.055408000946045,1.06,-2.48,3.03,4.05
21.064514875411987,1.31,-4.01,2.08,4.7
21.068339824676514,0.53,-6.55,2.19,6.92
21.080729961395264,-1.36,-8.12,3.29,8.86
21.08429789543152,-2.45,-6.47,2.47,7.34
21.097288846969604,-4.27,-3.32,2.73,6.05
21.10099697113037,-5.24,-4.07,2.83,7.21
21.114364862442017,-6.0,-3.96,-0.12,7.18
21.11582374572754,-6.36,-6.73,3.19,9.79
21.133638858795166,-2.09,-4.38,-2.94,5.67
21.13720703125,-1.35,-3.41,5.48,6.59
21.14561700820923,2.85,-2.69,15.46,15.94
21.14696979522705,4.93,1.89,16.47,17.29
21.164471864700317,6.0,2.65,10.66,12.51
21.168190956115723,5.77,1.33,6.8,9.01
21.178180932998657,5.5,2.53,6.42,8.82
21.179529905319214,5.14,2.99,6.33,8.68
21.20547103881836,3.48,3.06,6.68,8.12
21.206788063049316,1.9,3.93,6.86,8.13
21.213212966918945,1.42,4.9,5.56,7.54
21.214505910873413,1.6,5.95,4.1,7.4
21.233078002929688,1.57,7.17,3.01,7.93
21.237074851989746,1.06,8.27,3.21,8.93
21.24712371826172,0.09,9.13,4.03,9.98
21.250354766845703,-0.79,9.83,3.74,10.54
21.265082836151123,-1.73,10.24,3.88,11.08
21.268329858779907,-2.35,10.33,3.81,11.25
21.28690004348755,-2.63,10.05,3.45,10.94
21.287750720977783,-2.77,9.7,3.12,10.55
21.299012899398804,-3.1,9.26,2.81,10.16
21.302388906478882,-3.65,8.46,2.42,9.52
21.312042713165283,-4.14,7.71,2.86,9.2
21.31332778930664,-4.18,6.65,3.33,8.53
21.33264684677124,-3.91,5.36,2.75,7.18
21.33664083480835,-4.06,4.49,2.31,6.47
21.347254753112793,-4.29,3.68,2.03,6.0
21.35102391242981,-4.08,2.53,1.49,5.02
21.36546277999878,-3.65,1.19,0.49,3.87
21.366769790649414,-2.83,0.35,-0.13,2.85
21.385645866394043,-1.97,0.05,-0.7,2.09
21.38915777206421,-1.36,-0.2,-1.88,2.32
21.397584915161133,-1.04,-0.34,-2.52,2.74
21.40101385116577,-0.45,-1.13,-1.91,2.26
21.414934873580933,-0.15,-1.31,-0.85,1.56
21.418256759643555,0.12,-1.16,-0.81,1.41
21.43211603164673,1.39,-2.65,-1.76,3.47
21.43584394454956,2.15,-3.97,-1.45,4.74
21.452844858169556,1.8,-3.98,-1.84,4.73
21.454215049743652,1.49,-3.82,-2.6,4.85
21.467917919158936,0.5,-1.1,-3.15,3.37
21.471991062164307,-0.18,0.68,-2.29,2.39
21.481077909469604,-0.1,1.37,-2.1,2.5
21.48449182510376,0.53,1.91,-3.11,3.68
21.497257947921753,1.36,2.47,-6.72,7.28
21.500892877578735,1.5,2.21,-6.57,7.09
21.514116764068604,1.33,0.55,-4.43,4.65
21.517607927322388,1.37,-1.14,-3.31,3.75
21.531559944152832,1.77,-1.1,-3.42,4.0
21.53276491165161,2.68,-2.32,-3.05,4.67
21.551880836486816,2.3,-2.14,-1.72,3.58
21.55454397201538,1.34,-2.02,-0.04,2.42
21.56213688850403,0.78,-1.8,1.37,2.39
21.563442945480347,0.14,-1.62,1.35,2.11
21.582144737243652,-0.54,-1.7,0.85,1.97
21.58592176437378,-1.13,-1.44,-0.39,1.87
21.597267866134644,-1.31,-1.26,-2.05,2.73
21.601053714752197,-1.43,-0.99,-2.95,3.42
21.615424871444702,-1.4,-0.97,-2.75,3.23
21.6167209148407,-1.33,-1.24,-1.94,2.65
21.6347918510437,-1.52,-1.63,-1.4,2.63
21.638502836227417,-1.82,-2.2,-1.54,3.24
21.6478488445282,-1.91,-2.64,-2.03,3.83
21.65185785293579,-1.72,-2.82,-2.72,4.27
21.664026737213135,-1.31,-2.63,-3.27,4.39
21.668197870254517,-0.97,-2.12,-3.49,4.19
21.680641889572144,-0.92,-1.71,-3.35,3.87
21.684501886367798,-1.2,-1.49,-3.35,3.85
21.69867491722107,-1.49,-1.53,-3.33,3.95
21.69951891899109,-1.59,-1.72,-3.22,3.98
21.71618890762329,-1.59,-2.03,-3.11,4.03
21.719600915908813,-1.59,-2.13,-3.19,4.15
21.730695724487305,-1.38,-2.13,-3.17,4.06
21.733349800109863,-1.2,-2.16,-3.13,3.98
21.74884605407715,-1.27,-2.35,-3.1,4.09
21.752408981323242,-1.39,-2.48,-2.8,3.99
21.764803886413574,-1.38,-2.32,-2.48,3.66
21.76822805404663,-1.18,-1.94,-2.14,3.12
21.785292863845825,-1.09,-1.54,-1.89,2.67
21.786139965057373,-1.03,-1.19,-1.67,2.29
21.801499843597412,-0.93,-0.95,-1.5,2.0
21.805232048034668,-0.75,-0.75,-1.52,1.85
21.81230592727661,-0.62,-0.69,-1.61,1.85
21.81339693069458,-0.75,-0.73,-1.77,2.05
21.83141279220581,-0.86,-0.73,-1.58,1.94
21.8351469039917,-0.87,-0.77,-1.12,1.61
21.847211837768555,-0.91,-0.69,-0.72,1.35
21.850629806518555,-1.07,-0.56,-0.62,1.35
21.865362882614136,-1.23,-0.4,-0.88,1.56
21.866224765777588,-1.34,-0.31,-1.64,2.14
21.884929895401,-1.34,-0.01,-3.28,3.54
21.887420892715454,-1.3,0.31,-3.14,3.41
21.897393941879272,-1.34,0.16,-2.39,2.74
21.900053024291992,-1.26,-0.14,-1.12,1.69
21.915252923965454,-0.97,-0.18,-0.32,1.03
21.918691873550415,-0.77,0.11,0.74,1.07
21.930572986602783,-0.65,0.47,1.68,1.86
21.934645891189575,-0.49,0.84,1.93,2.16
21.94876003265381,-0.39,0.99,1.63,1.94
21.95021891593933,-0.37,0.9,1.1,1.46
21.967042922973633,-0.47,0.68,0.56,0.99
21.970523834228516,-0.58,0.3,-0.51,0.82
21.98036003112793,-0.65,0.07,-1.54,1.67
21.98167586326599,-0.7,0.01,-1.76,1.89
21.997530937194824,-0.73,-0.04,-1.59,1.75
22.001444816589355,-0.71,0.01,-1.37,1.54
22.013526916503906,-0.56,0.24,-0.81,1.01
22.015848875045776,-0.33,0.46,-0.04,0.56
22.037829875946045,-0.19,0.59,0.22,0.65
22.039045810699463,-0.08,0.78,0.23,0.81
22.049495935440063,0.02,0.89,0.17,0.9
22.053030014038086,0.08,0.92,0.11,0.93
22.06234884262085,0.16,0.93,0.15,0.95
22.0635027885437,0.21,0.86,0.17,0.9
22.080922842025757,0.17,0.77,0.19,0.81
22.085012912750244,0.12,0.67,0.17,0.7
22.097527027130127,0.13,0.6,0.24,0.65
22.10110592842102,0.19,0.55,0.34,0.67
22.11538076400757,0.25,0.51,0.42,0.7
22.116793870925903,0.28,0.45,0.54,0.75
22.135025024414062,0.26,0.42,0.7,0.85
22.138815879821777,0.19,0.38,0.83,0.93
22.147299766540527,0.1,0.33,0.79,0.86
22.150657892227173,0.02,0.3,0.59,0.66
22.164005756378174,-0.06,0.27,0.34,0.43
22.167415857315063,-0.14,0.2,0.07,0.25
22.180332899093628,-0.23,0.06,-0.17,0.29
22.18404483795166,-0.28,-0.07,-0.28,0.4
22.198675870895386,-0.35,-0.26,-0.3,0.52
22.199659824371338,-0.4,-0.49,-0.39,0.74
22.218059062957764,-0.43,-0.66,-0.58,0.97
22.221024990081787,-0.41,-0.77,-0.7,1.11
22.228850841522217,-0.41,-0.91,-0.62,1.17
22.23003888130188,-0.43,-1.08,-0.5,1.26
22.247135877609253,-0.46,-1.22,-0.51,1.4
22.251210927963257,-0.5,-1.41,-0.72,1.66
22.26557183265686,-0.57,-1.65,-1.13,2.07
22.269139766693115,-0.7,-1.83,-1.61,2.53
22.28213596343994,-0.81,-1.9,-1.92,2.82
22.283429861068726,-0.85,-1.87,-2.03,2.88
22.29924488067627,-0.83,-1.84,-1.85,2.73
22.30308198928833,-0.81,-1.79,-1.58,2.52
22.31474781036377,-0.79,-1.71,-1.3,2.28
22.318511962890625,-0.73,-1.5,-0.87,1.88
22.33077883720398,-0.55,-1.04,-0.47,1.26
22.33484387397766,-0.2,-0.5,-0.25,0.59
22.348526000976562,0.07,-0.02,0.0,0.07
22.3522629737854,0.15,0.38,0.5,0.64
22.36896276473999,0.14,0.64,1.1,1.28
22.369744777679443,0.14,0.79,1.4,1.61
22.38398289680481,0.15,0.88,1.31,1.58
22.3874568939209,0.13,0.92,1.07,1.41
22.397835731506348,0.02,1.02,0.94,1.38
22.401331901550293,-0.1,1.16,0.92,1.48
22.41372776031494,-0.12,1.26,1.05,1.64
22.416545867919922,-0.07,1.3,1.23,1.79
22.430891036987305,-0.01,1.38,1.39,1.95
22.434587955474854,0.16,1.53,1.47,2.12
22.44767999649048,0.38,1.61,1.57,2.28
22.449073791503906,0.49,1.52,1.7,2.33
22.465879917144775,0.5,1.36,1.75,2.27
22.46939182281494,0.43,1.22,1.75,2.17
22.48069477081299,0.36,1.17,1.66,2.06
22.48447275161743,0.33,1.07,1.5,1.87
22.498313903808594,0.38,0.83,1.3,1.58
22.50217580795288,0.45,0.59,1.08,1.31
22.513874053955078,0.57,0.42,0.87,1.12
22.51770782470703,0.78,0.26,0.72,1.09
22.531982898712158,1.04,0.07,0.7,1.25
22.532912731170654,1.22,-0.12,0.86,1.49
22.55110502243042,1.42,-0.19,1.31,1.94
22.55415987968445,1.58,-0.29,1.61,2.27
22.564438819885254,1.6,-0.56,1.48,2.25
22.567172050476074,1.55,-0.71,1.28,2.13
22.58051085472107,1.54,-0.73,1.07,2.01
22.58355188369751,1.47,-0.75,0.8,1.83
22.598851919174194,1.21,-0.83,0.59,1.58
22.60114288330078,0.87,-0.77,0.47,1.25
22.619916915893555,0.57,-0.45,0.43,0.84
22.621257781982422,0.39,0.07,0.5,0.63
22.629796981811523,0.25,0.25,0.28,0.45
22.631094932556152,0.11,0.24,-0.19,0.32
22.650722980499268,0.04,0.37,-0.35,0.51
22.654207944869995,-0.01,0.42,-0.28,0.5
22.661516904830933,-0.05,0.36,-0.18,0.4
22.662818908691406,-0.07,0.23,-0.15,0.28
22.680919885635376,-0.11,0.02,-0.14,0.17
22.684810876846313,-0.2,-0.22,-0.16,0.33
22.69875693321228,-0.28,-0.42,-0.19,0.53
22.699999809265137,-0.37,-0.64,-0.22,0.77
22.715736865997314,-0.47,-0.86,-0.29,1.02
22.719575881958008,-0.54,-0.94,-0.35,1.13
22.73118782043457,-0.52,-0.9,-0.38,1.1
22.735174894332886,-0.43,-0.78,-0.48,1.01
22.747699737548828,-0.36,-0.68,-0.58,0.96
22.74959373474121,-0.33,-0.62,-0.62,0.93
22.76566982269287,-0.34,-0.66,-0.7,1.02
22.769826889038086,-0.32,-0.76,-0.76,1.12
22.78020191192627,-0.39,-0.86,-0.66,1.15
22.780975818634033,-0.48,-0.75,-0.32,0.94
22.801403045654297,-0.4,-0.79,-0.24,0.91
22.805233001708984,-0.29,-0.76,-0.17,0.83
22.813625812530518,-0.21,-0.71,-0.19,0.76
22.816388845443726,-0.19,-0.63,-0.4,0.77
22.8311288356781,-0.13,-0.42,-1.45,1.51
22.833816051483154,-0.19,-0.3,-1.57,1.6
22.84711194038391,-0.36,-0.39,-0.86,1.01
22.850162029266357,-0.44,-0.61,-0.18,0.77
22.869606018066406,-0.45,-0.69,0.09,0.82
22.870902061462402,-0.43,-0.65,0.08,0.78
22.8795108795166,-0.4,-0.5,0.05,0.64
22.880784034729004,-0.29,-0.32,-0.01,0.43
22.90049386024475,-0.22,-0.2,0.18,0.34
22.903982877731323,-0.26,-0.12,0.54,0.61
22.914357900619507,-0.25,0.02,0.48,0.54
22.91847586631775,-0.14,0.16,-0.22,0.3
22.931062936782837,-0.08,0.38,-0.82,0.9
22.93463373184204,-0.15,0.53,-0.77,0.94
22.95069193840027,-0.15,0.51,-0.52,0.74
22.951536893844604,-0.03,0.48,-0.26,0.54
22.965317726135254,0.06,0.56,0.02,0.56
22.96761703491211,0.05,0.61,0.19,0.64
22.982661724090576,0.0,0.59,0.25,0.64
22.985935926437378,-0.07,0.59,0.22,0.63
22.99671483039856,-0.11,0.57,0.21,0.61
23.000257968902588,-0.04,0.54,0.2,0.57
23.0154709815979,0.06,0.45,0.16,0.48
23.018154859542847,0.13,0.3,0.09,0.33
23.036852836608887,0.18,0.18,0.02,0.25
23.038158893585205,0.2,0.08,-0.09,0.23
23.05069875717163,0.19,0.05,-0.14,0.24
23.053096771240234,0.2,0.05,-0.21,0.29
23.064741849899292,0.26,0.01,-0.32,0.41
23.068533897399902,0.27,0.02,-0.39,0.47
23.07816171646118,0.26,0.05,-0.34,0.43
23.079411029815674,0.29,-0.02,-0.32,0.43
23.097493886947632,0.32,-0.12,-0.35,0.48
23.101064920425415,0.31,-0.15,-0.36,0.49
23.118016719818115,0.28,-0.15,-0.32,0.45
23.11917781829834,0.24,-0.21,-0.3,0.43
23.13360595703125,0.2,-0.3,-0.27,0.45
23.13684606552124,0.19,-0.37,-0.22,0.47
23.145686864852905,0.17,-0.47,-0.2,0.53
23.146955013275146,0.13,-0.57,-0.24,0.63
23.16425371170044,0.08,-0.64,-0.29,0.7
23.167902946472168,0.04,-0.68,-0.35,0.76
23.18189787864685,-0.02,-0.71,-0.44,0.83
23.18548083305359,-0.06,-0.69,-0.51,0.86
23.20226287841797,-0.07,-0.63,-0.51,0.81
23.203028917312622,-0.05,-0.56,-0.41,0.69
23.217670917510986,-0.06,-0.53,-0.31,0.61
23.221271991729736,-0.09,-0.51,-0.27,0.58
23.22897481918335,-0.1,-0.47,-0.25,0.54
23.23007106781006,-0.08,-0.41,-0.25,0.48
23.247365951538086,-0.05,-0.34,-0.29,0.44
23.25089192390442,0.01,-0.3,-0.29,0.41
23.264235973358154,0.03,-0.24,-0.3,0.38
23.26780891418457,0.03,-0.2,-0.38,0.43
23.281778812408447,0.0,-0.19,-0.49,0.52
23.28319787979126,-0.08,-0.23,-0.56,0.61
23.301735877990723,-0.12,-0.31,-0.65,0.73
23.305080890655518,-0.13,-0.36,-0.61,0.72
23.31195092201233,-0.13,-0.34,-0.51,0.62
23.31313180923462,-0.09,-0.27,-0.44,0.52
23.330898761749268,-0.02,-0.23,-0.34,0.41
23.334523916244507,0.06,-0.22,-0.19,0.29
23.347126960754395,0.16,-0.23,-0.03,0.28
23.35056972503662,0.18,-0.27,0.1,0.33
23.365582942962646,0.14,-0.38,0.15,0.43
23.366768836975098,0.09,-0.59,0.05,0.59
23.3850839138031,-0.01,-0.86,-0.08,0.86
23.38792896270752,-0.02,-1.09,-0.1,1.09
23.395643711090088,0.06,-1.28,0.05,1.28
23.396852016448975,0.15,-1.42,0.46,1.5
23.415501832962036,0.2,-1.45,0.48,1.54
23.419667720794678,0.18,-1.55,0.09,1.56
23.430397033691406,0.2,-1.66,-0.35,1.7
23.434855937957764,0.15,-1.64,-0.49,1.71
23.44877004623413,0.08,-1.54,-0.53,1.63
23.450199842453003,0.11,-1.4,-0.74,1.58
23.46826982498169,0.19,-1.3,-0.99,1.64
23.472723960876465,0.23,-1.09,-1.14,1.59
23.4808828830719,0.19,-0.76,-0.97,1.24
23.484416007995605,0.05,-0.28,-0.61,0.67
23.496784925460815,-0.03,0.24,-0.43,0.49
23.499290943145752,-0.05,0.79,-0.3,0.84
23.515216827392578,0.02,1.28,-0.08,1.28
23.51902198791504,0.21,1.63,0.09,1.64
23.531827926635742,0.35,1.73,0.17,1.77
23.53310203552246,0.34,1.68,0.29,1.73
23.549476861953735,0.19,1.68,0.46,1.75
23.551751852035522,0.04,1.75,0.6,1.85
23.56633687019348,-0.03,1.74,0.58,1.83
23.568652868270874,-0.04,1.61,0.56,1.7
23.580376863479614,-0.12,1.5,0.59,1.61
23.58478283882141,-0.24,1.48,0.56,1.6
23.59705090522766,-0.35,1.49,0.48,1.6
23.600534915924072,-0.4,1.47,0.35,1.56
23.61900281906128,-0.33,1.43,0.25,1.48
23.620460033416748,-0.2,1.35,0.22,1.38
23.63279390335083,-0.09,1.3,0.26,1.32
23.63561987876892,-0.05,1.25,0.38,1.3
23.64768886566162,-0.03,1.22,0.49,1.31
23.650959968566895,-0.03,1.19,0.51,1.29
23.663119792938232,-0.05,1.11,0.47,1.2
23.665321826934814,-0.04,0.93,0.41,1.01
23.68141794204712,0.04,0.58,0.41,0.71
23.683945894241333,0.18,0.17,0.46,0.52
23.698171854019165,0.3,-0.17,0.64,0.72
23.699200868606567,0.3,-0.45,0.86,1.01
23.712870836257935,0.19,-0.78,0.94,1.23
23.714160919189453,0.13,-1.06,0.89,1.39
23.731517791748047,0.18,-1.33,0.83,1.57
23.735622882843018,0.19,-1.77,0.87,1.98
23.744857788085938,0.16,-2.4,1.02,2.61
23.747917890548706,0.29,-3.12,1.26,3.37
23.76437473297119,0.54,-3.73,1.21,3.95
23.767099857330322,0.69,-4.26,1.08,4.44
23.784615993499756,0.59,-4.59,1.23,4.78
23.785488843917847,0.48,-4.87,1.24,5.04
23.79973602294922,0.42,-4.98,1.01,5.09
23.802644729614258,0.55,-4.62,0.49,4.67
23.814743041992188,0.89,-4.43,-0.97,4.62
23.8188419342041,1.18,-4.04,-2.87,5.09
23.830740928649902,1.41,-3.57,-3.99,5.53
23.83470106124878,1.48,-3.91,-4.01,5.79
23.847057819366455,0.74,-5.27,-4.84,7.19
23.851479053497314,-0.69,-5.88,-8.07,10.0
23.86780071258545,-0.54,-6.45,-10.67,12.47
23.869143962860107,0.02,-6.06,-9.45,11.22
23.884751796722412,-0.18,-4.83,-5.04,6.98
23.886223793029785,-1.28,-3.68,-1.88,4.32
23.89848494529724,-2.08,-2.17,-0.7,3.08
23.90221881866455,-1.61,-1.21,-1.85,2.73
23.914923906326294,-0.92,-1.87,-2.15,2.99
23.916663885116577,-0.77,-4.46,-0.84,4.6
23.93224287033081,-0.46,-7.82,-0.58,7.85
23.93643593788147,-0.93,-9.68,-1.02,9.77
23.9505558013916,-1.07,-10.2,-0.86,10.29
23.952059745788574,-1.09,-8.69,-1.01,8.81
23.96550488471985,-0.97,-5.61,0.1,5.69
23.967702865600586,-1.02,-3.11,0.01,3.27
23.984333992004395,-1.06,-1.53,-0.89,2.06
23.988100051879883,-1.33,-0.86,-0.71,1.73
23.99816393852234,-1.98,-1.12,0.13,2.27
24.001113891601562,-2.71,-1.84,0.03,3.27
24.01508378982544,-3.32,-2.1,-0.52,3.96
24.018136978149414,-3.51,-1.8,-0.77,4.01
24.03777503967285,-3.49,-1.04,-0.93,3.75
24.03895092010498,-3.36,0.39,-0.9,3.5
24.045860767364502,-3.26,1.76,-0.9,3.81
24.04664373397827,-3.52,2.51,-0.21,4.32
24.066157817840576,-3.73,2.94,0.26,4.75
24.069414854049683,-3.89,3.13,0.81,5.05
24.082990884780884,-3.9,3.32,0.83,5.18
24.086899757385254,-3.6,3.4,0.74,5.0
24.097270011901855,-3.21,3.47,0.62,4.76
24.10123872756958,-2.85,3.8,0.94,4.84
24.12096405029297,-2.23,4.02,1.24,4.76
24.122249841690063,-1.54,4.32,1.93,4.97
24.128540992736816,-0.99,4.72,2.35,5.36
24.129337787628174,-0.66,5.07,2.38,5.63
24.148530960083008,-0.33,5.25,2.4,5.78
24.15245294570923,0.01,5.1,2.42,5.64
24.16394805908203,0.3,4.74,2.13,5.2
24.167892932891846,0.58,4.28,1.77,4.66
24.184398889541626,0.89,3.72,1.9,4.27
24.188442945480347,1.36,3.1,2.04,3.95
24.197335720062256,1.91,2.49,2.0,3.72
24.19822597503662,2.33,1.89,1.63,3.41
24.217882871627808,2.48,1.36,1.12,3.04
24.221900939941406,2.49,0.97,0.75,2.77
24.230742931365967,2.54,0.67,0.72,2.72
24.233109951019287,2.77,0.47,0.69,2.89
24.248115062713623,3.13,0.3,1.27,3.39
24.250401973724365,3.43,-0.04,1.77,3.85
24.26605796813965,3.47,-0.37,1.96,4.0
24.270307064056396,3.38,-0.39,2.01,3.95
24.281040906906128,3.23,-0.34,1.89,3.75
24.28193187713623,3.06,-0.26,1.65,3.48
24.2997727394104,2.89,-0.17,1.33,3.18
24.303897857666016,2.6,0.08,1.63,3.06
24.31475305557251,2.64,0.49,1.69,3.17
24.31731390953064,2.74,0.85,2.01,3.5
24.334253787994385,2.78,1.3,2.29,3.82
24.338252067565918,2.74,1.52,2.12,3.78
24.347418785095215,2.57,1.57,1.82,3.51
24.3504319190979,2.23,1.69,1.77,3.31
24.369472980499268,1.92,1.99,1.68,3.23
24.370811939239502,1.74,2.35,1.51,3.29
24.37973403930664,1.6,2.53,2.13,3.67
24.380539894104004,1.39,2.21,3.03,3.99
24.3987717628479,1.08,1.64,3.41,3.93
24.402958869934082,0.77,1.3,3.19,3.52
24.413704872131348,0.57,1.06,2.45,2.72
24.417361736297607,0.53,0.94,1.49,1.83
24.43052101135254,0.7,0.57,0.88,1.26
24.434216022491455,1.25,-0.39,1.07,1.69
24.452374935150146,1.89,-1.36,1.47,2.75
24.453693866729736,2.22,-2.01,1.39,3.3
24.46707773208618,2.38,-2.55,1.5,3.79
24.471203804016113,2.1,-3.71,3.19,5.32
24.48087787628174,1.65,-2.78,2.65,4.18
24.484259843826294,0.63,-0.58,-0.78,1.15
24.49954390525818,-0.05,0.08,-1.24,1.24
24.502176761627197,-0.08,0.23,-0.37,0.44
24.514710903167725,0.0,0.74,-0.04,0.74
24.518297910690308,-0.13,1.35,1.02,1.69
24.536215782165527,-0.08,1.58,1.78,2.38
24.537048816680908,0.16,1.18,2.3,2.58
24.55156898498535,0.65,0.47,1.49,1.69
24.55595088005066,1.47,-0.33,0.38,1.55
24.56459093093872,2.25,-0.48,0.18,2.3
24.567991733551025,2.01,-0.24,1.24,2.37
24.578203916549683,1.07,0.48,2.28,2.56
24.57951784133911,0.95,0.5,1.55,1.88
24.597795009613037,1.77,-0.06,0.35,1.8
24.60179090499878,2.27,-0.28,-0.55,2.35
24.618621826171875,2.03,0.88,-0.29,2.23
24.61979103088379,1.57,2.99,1.02,3.52
24.630404949188232,1.82,3.93,1.09,4.46
24.63167381286621,2.23,3.05,1.08,3.92
24.649351835250854,1.1,3.73,2.56,4.65
24.65368390083313,-0.7,5.32,2.9,6.09
24.66447401046753,-1.54,5.68,2.38,6.34
24.66762089729309,-1.32,0.65,-6.14,6.31
24.68061399459839,-5.34,-12.4,-13.95,19.41
24.68453288078308,0.45,-4.37,9.8,10.73
24.70229482650757,1.98,-0.13,4.24,4.68
24.703118801116943,-1.0,1.47,1.54,2.35
24.717473030090332,-2.38,-1.31,-2.0,3.37
24.721224784851074,-0.32,-2.69,-1.07,2.91
24.731520891189575,-0.08,-4.48,0.2,4.48
24.735239028930664,-1.74,-1.35,0.77,2.33
24.747639894485474,-2.48,1.34,-0.29,2.83
24.751219749450684,-1.11,-1.37,-1.83,2.54
24.763758897781372,-0.02,-1.58,0.09,1.58
24.766221046447754,-0.14,1.34,0.64,1.49
24.784868717193604,-0.4,0.89,-0.31,1.02
24.78619694709778,0.23,-1.53,-0.34,1.58
24.79757595062256,0.44,-2.25,0.42,2.33
24.798383712768555,-0.1,-1.85,1.11,2.15
24.815213918685913,-1.56,-0.85,1.06,2.06
24.819437980651855,-2.53,-0.35,0.91,2.71
24.83083486557007,-2.62,0.41,1.08,2.86
24.83349585533142,-3.01,0.89,0.7,3.21
24.848474979400635,-1.98,-0.03,0.9,2.17
24.85271978378296,-0.65,0.7,1.07,1.43
24.868056774139404,-0.45,1.34,0.69,1.57
24.86888074874878,-0.38,0.77,-0.26,0.89
24.886088848114014,-0.08,0.79,-0.74,1.08
24.889044761657715,-0.5,1.38,-1.13,1.85
24.89803981781006,-0.94,1.71,-1.25,2.31
24.90128493309021,1.54,-1.15,0.18,1.93
24.91474199295044,4.41,-4.02,2.22,6.36
24.918531894683838,3.85,-0.04,4.1,5.62
24.930583953857422,2.94,1.3,2.51,4.07
24.93435287475586,2.98,0.25,1.3,3.26
24.948708057403564,2.51,0.08,0.7,2.6
24.949602842330933,0.68,0.37,-0.69,1.03
24.96956992149353,-0.82,0.09,-0.93,1.24
24.97311782836914,-1.41,-0.53,-0.5,1.58
24.979108810424805,-1.1,-0.29,0.05,1.13
24.98037099838257,-0.6,-0.21,0.52,0.82
24.999167919158936,0.49,-0.19,0.43,0.67
25.003427982330322,0.73,-0.16,0.31,0.8
25.014267921447754,-0.77,1.43,-0.03,1.62
25.01808500289917,-3.02,1.75,-2.04,4.04
25.03143882751465,-3.48,2.44,-1.97,4.68
25.032681941986084,-4.29,4.3,-1.17,6.18
25.052461862564087,-1.58,3.04,-0.35,3.44
25.055368900299072,7.43,-4.94,-0.47,8.93
25.062500953674316,11.78,-5.56,3.15,13.4
25.063809871673584,5.46,2.95,4.83,7.86
25.08185577392578,3.47,2.83,-0.49,4.5
25.085705757141113,2.37,-0.03,-2.44,3.4
25.098357915878296,1.43,-0.35,-0.59,1.58
25.102229833602905,-1.15,0.05,-1.33,1.75
25.115216732025146,-4.16,0.45,-2.62,4.93
25.116127967834473,-3.95,1.12,-1.39,4.33
25.135787963867188,-3.04,0.78,-0.7,3.21
25.138680934906006,-2.57,-0.68,-0.62,2.72
25.148072719573975,-2.6,-2.69,0.06,3.74
25.150851726531982,-2.65,-3.26,0.68,4.25
25.16542673110962,-3.08,-2.6,0.58,4.07
25.168237924575806,-3.34,-1.53,0.49,3.7
25.180116891860962,-2.52,-0.98,0.75,2.8
25.18361783027649,-0.7,0.9,2.11,2.39
25.203763008117676,0.99,2.53,2.64,3.78
