time,ax,ay,az,atotal
0.003133058547973633,0.03,-0.01,0.02,0.03
0.012555837631225586,-0.09,0.06,-0.06,0.12
0.03902101516723633,0.06,0.01,-0.06,0.08
0.04049086570739746,0.0,0.0,-0.06,0.06
0.04217195510864258,-0.15,0.11,-0.1,0.21
0.05246591567993164,-0.08,0.05,-0.05,0.1
0.0625298023223877,0.02,0.0,0.02,0.02
0.07233309745788574,0.01,-0.05,0.08,0.09
0.0829010009765625,0.04,-0.06,0.08,0.1
0.09537696838378906,0.05,-0.06,0.1,0.12
0.10546278953552246,0.04,-0.01,0.07,0.08
0.11300206184387207,-0.03,0.05,-0.01,0.05
0.1356818675994873,-0.03,0.05,-0.04,0.07
0.13812994956970215,0.0,0.02,-0.06,0.06
0.14266490936279297,0.04,-0.04,-0.06,0.08
0.15308690071105957,0.08,-0.08,-0.02,0.11
0.1628429889678955,0.08,-0.11,0.06,0.14
0.17350101470947266,0.02,-0.04,0.04,0.06
0.1835169792175293,0.0,0.04,-0.01,0.04
0.1961829662322998,-0.03,0.06,0.01,0.06
0.2036600112915039,-0.01,0.04,0.04,0.05
0.21650385856628418,-0.07,0.04,0.03,0.08
0.23695588111877441,-0.11,0.08,0.01,0.13
0.23874878883361816,-0.07,0.03,-0.02,0.07
0.24338889122009277,-0.08,0.07,0.01,0.1
0.2535440921783447,-0.02,0.04,0.02,0.04
0.2633950710296631,0.01,0.02,-0.01,0.02
0.2742009162902832,0.02,-0.03,0.01,0.03
0.28644895553588867,0.06,-0.08,0.03,0.1
0.29585909843444824,0.08,-0.08,0.03,0.11
0.3065941333770752,0.05,-0.04,0.0,0.06
0.31398987770080566,0.05,-0.03,-0.01,0.05
0.34307312965393066,0.04,-0.01,-0.01,0.04
0.34545207023620605,0.02,0.0,-0.04,0.04
0.3468339443206787,-0.05,0.06,-0.03,0.08
0.35404491424560547,-0.12,0.05,-0.06,0.14
0.3642449378967285,0.0,0.02,-0.02,0.02
0.3746769428253174,0.1,-0.11,0.11,0.18
0.3863251209259033,0.22,-0.18,0.12,0.3
0.3943610191345215,0.24,-0.24,0.08,0.34
0.4084630012512207,0.31,-0.31,0.0,0.43
0.4169650077819824,0.34,-0.25,-0.03,0.42
0.4412548542022705,0.24,-0.2,-0.05,0.31
0.44376301765441895,0.2,-0.15,-0.03,0.25
0.44532179832458496,0.19,-0.18,0.03,0.26
0.4546799659729004,0.2,-0.51,-0.01,0.54
0.46460986137390137,0.41,-0.44,0.11,0.61
0.4754049777984619,0.23,0.15,-0.01,0.27
0.48757195472717285,0.17,-0.77,-0.14,0.8
0.4951009750366211,0.75,-0.87,0.39,1.21
0.5088918209075928,0.72,-0.9,-0.05,1.15
0.515427827835083,0.52,-1.11,0.02,1.22
0.5412890911102295,0.52,-1.06,-0.23,1.2
0.5437381267547607,0.2,-0.64,-0.24,0.71
0.5453100204467773,-0.08,-0.2,-0.2,0.29
0.5552279949188232,-0.2,-0.04,-0.17,0.26
0.5652539730072021,-0.03,-0.15,-0.05,0.16
0.5754148960113525,0.17,-0.51,0.13,0.55
0.5885031223297119,0.05,-0.43,-0.06,0.43
0.5954148769378662,-0.72,0.91,-0.24,1.18
0.6088869571685791,-1.24,2.01,-0.49,2.41
0.6155540943145752,-1.36,2.03,-0.61,2.51
0.641124963760376,-1.2,1.29,-0.28,1.78
0.6436200141906738,-0.7,0.58,0.03,0.9
0.6455271244049072,-0.28,0.09,0.43,0.52
0.6556639671325684,-0.28,0.05,0.33,0.43
0.6659269332885742,0.11,0.08,0.59,0.6
0.6756551265716553,-0.13,-0.25,0.25,0.37
0.6862859725952148,0.41,-1.26,0.6,1.45
0.6990859508514404,-0.08,-0.23,0.38,0.45
0.7091069221496582,-0.52,-0.78,0.25,0.97
0.7183411121368408,-0.3,-0.02,-0.01,0.3
0.7397279739379883,-0.51,-0.35,-0.29,0.68
0.7422378063201904,-0.13,0.46,-0.24,0.53
0.746147871017456,-0.03,0.28,-0.36,0.45
0.763340950012207,0.07,0.34,-0.33,0.47
0.766308069229126,0.17,0.59,-0.31,0.68
0.7765958309173584,0.28,0.42,-0.43,0.66
0.7902889251708984,0.22,0.62,-0.34,0.74
0.7969069480895996,-0.06,0.66,-0.31,0.73
0.8100998401641846,-0.16,0.08,0.06,0.18
0.817101001739502,0.07,-0.11,0.35,0.37
0.846750020980835,0.18,-0.08,0.28,0.34
0.8492369651794434,0.16,-0.46,0.06,0.49
0.8507211208343506,-0.09,-0.79,0.14,0.8
0.8568470478057861,-0.22,-0.87,-0.01,0.89
0.8669178485870361,-0.11,-0.89,0.17,0.91
0.8772389888763428,-0.02,-0.36,0.18,0.4
0.8873178958892822,0.24,0.18,0.06,0.3
0.9003050327301025,0.17,0.42,0.03,0.45
0.9074349403381348,0.06,0.49,-0.27,0.56
0.9202110767364502,-0.03,0.81,-0.2,0.83
0.9447369575500488,-0.25,1.04,-0.48,1.17
0.9471399784088135,-0.39,1.11,-0.48,1.27
0.9486358165740967,-0.5,0.53,-0.49,0.87
0.9575841426849365,-0.36,0.4,-0.45,0.7
0.9674360752105713,-0.43,0.48,-0.4,0.75
0.9782459735870361,-0.48,0.59,-0.16,0.77
0.9909718036651611,-0.5,0.59,0.4,0.87
0.9978659152984619,-0.77,0.66,0.72,1.24
1.0102460384368896,-0.66,0.7,0.9,1.31
1.0181028842926025,-0.65,0.88,1.15,1.58
1.0472948551177979,-1.98,0.95,1.22,2.51
1.0498268604278564,0.05,-0.93,0.25,0.96
1.0514090061187744,2.67,-2.93,-2.15,4.5
1.0579068660736084,3.2,-1.92,-1.69,4.09
1.068077802658081,0.33,-0.14,0.51,0.62
1.0781500339508057,-1.19,0.33,0.48,1.32
1.088582992553711,-0.22,-0.14,-0.08,0.27
1.101167917251587,0.44,-0.13,0.42,0.62
1.11092209815979,-0.21,-0.01,0.28,0.35
1.118333101272583,-0.38,0.21,-0.05,0.43
1.1444528102874756,-0.1,0.08,0.15,0.19
1.1469149589538574,0.01,-0.02,0.22,0.22
1.1485559940338135,-0.14,0.15,-0.21,0.29
1.1585638523101807,-0.19,0.15,-0.36,0.43
1.1686129570007324,-0.01,0.03,-0.17,0.17
1.1788108348846436,0.05,-0.08,-0.03,0.09
1.188952922821045,0.03,-0.07,-0.01,0.07
1.2020699977874756,-0.03,-0.05,0.1,0.11
1.2092111110687256,-0.11,0.04,0.15,0.19
1.2217438220977783,-0.22,0.15,0.04,0.26
1.244088888168335,-0.25,0.17,0.01,0.3
1.246189832687378,-0.22,0.19,0.03,0.29
1.2488958835601807,-0.22,0.16,0.05,0.27
1.2593038082122803,-0.24,0.13,0.13,0.3
1.2693397998809814,-0.18,0.1,0.16,0.26
1.279297113418579,-0.06,0.0,0.0,0.06
1.2898080348968506,0.04,-0.04,-0.12,0.13
1.3023619651794434,0.08,-0.1,-0.13,0.18
1.309291124343872,0.13,-0.17,-0.1,0.23
1.3231418132781982,0.25,-0.28,-0.07,0.38
1.3490030765533447,0.26,-0.23,-0.11,0.36
1.3515679836273193,0.15,-0.14,-0.19,0.27
1.35316801071167,0.11,-0.09,-0.27,0.3
1.3596949577331543,0.12,-0.08,-0.27,0.3
1.3696579933166504,0.14,-0.1,-0.2,0.26
1.3800480365753174,0.11,-0.13,-0.11,0.2
1.390228033065796,0.1,-0.16,0.07,0.2
1.4028069972991943,0.06,-0.11,0.22,0.25
1.4125840663909912,-0.1,0.06,0.14,0.18
1.4233238697052002,-0.22,0.17,-0.09,0.29
1.4443318843841553,-0.12,0.12,-0.16,0.23
1.446821928024292,0.03,-0.01,-0.11,0.11
1.4501559734344482,0.19,-0.19,-0.18,0.32
1.4603519439697266,0.44,-0.39,-0.48,0.75
1.470343828201294,0.77,-0.63,-0.63,1.17
1.480381965637207,0.87,-0.68,-0.51,1.21
1.4937570095062256,0.62,-0.56,-0.39,0.92
1.500943899154663,0.42,-0.41,-0.24,0.63
1.513091802597046,0.14,-0.15,-0.01,0.2
1.5211050510406494,-0.11,0.02,0.36,0.37
1.5502510070800781,-0.53,0.28,0.68,0.9
1.5527141094207764,-0.78,0.37,0.89,1.23
1.5542948246002197,-0.5,0.12,1.16,1.26
1.5607860088348389,-0.17,-0.03,1.08,1.09
1.5709989070892334,-0.21,0.09,0.67,0.7
1.581129789352417,-0.47,0.28,0.37,0.66
1.5915720462799072,-0.62,0.45,0.18,0.78
1.6036031246185303,-0.63,0.57,0.0,0.84
1.611419916152954,-0.51,0.51,-0.37,0.81
1.625385046005249,-0.23,0.19,-0.45,0.53
1.6454617977142334,0.01,-0.01,-0.2,0.2
1.6471807956695557,0.09,-0.07,0.0,0.11
1.6511869430541992,-0.17,0.01,0.07,0.18
1.6614868640899658,-0.03,0.01,-0.08,0.08
1.6715409755706787,0.08,-0.03,-0.1,0.13
1.68149995803833,-0.12,0.02,0.09,0.15
1.6921489238739014,-0.23,0.17,0.28,0.4
1.7042210102081299,-0.37,0.25,0.24,0.5
1.711885929107666,-0.39,0.25,0.07,0.46
1.7258119583129883,-0.08,0.08,-0.14,0.18
1.7466599941253662,0.15,-0.1,-0.17,0.24
1.7484309673309326,-0.02,-0.03,-0.01,0.03
1.751755952835083,-0.07,0.04,0.05,0.09
1.7618048191070557,0.02,-0.07,-0.06,0.09
1.7720201015472412,0.08,-0.14,-0.08,0.18
1.7824149131774902,0.21,-0.16,-0.09,0.27
1.7923080921173096,0.12,-0.08,-0.11,0.18
1.8057191371917725,-0.16,0.1,-0.08,0.2
1.8121860027313232,-0.22,0.18,0.03,0.28
1.825788974761963,-0.25,0.21,0.12,0.34
1.8523650169372559,-0.4,0.29,0.15,0.51
1.8541200160980225,-0.3,0.22,0.1,0.38
1.8556909561157227,-0.09,0.05,-0.05,0.11
1.8624861240386963,-0.02,-0.02,-0.17,0.17
1.8723959922790527,0.09,-0.07,-0.16,0.19
1.8829529285430908,0.16,-0.17,-0.08,0.24
1.8928430080413818,0.1,-0.06,-0.2,0.23
1.9026269912719727,0.25,-0.18,-0.41,0.51
1.9160840511322021,0.38,-0.23,-0.34,0.55
1.923187017440796,0.11,-0.04,-0.14,0.18
1.951267957687378,-0.18,0.14,-0.17,0.28
1.953812837600708,-0.08,0.06,-0.25,0.26
1.9552159309387207,0.14,-0.04,-0.25,0.28
1.9630589485168457,0.11,0.08,-0.33,0.35
1.9732000827789307,-0.24,0.22,-0.3,0.44
1.9831678867340088,0.04,-0.09,-0.21,0.23
1.9965529441833496,0.26,-0.17,-0.09,0.32
2.0033669471740723,0.18,-0.06,-0.08,0.2
2.0136709213256836,0.03,0.02,-0.17,0.17
2.026219129562378,0.08,0.02,-0.11,0.13
2.0486979484558105,0.21,-0.16,0.08,0.27
2.0512149333953857,0.44,-0.41,0.27,0.65
2.053346872329712,0.48,-0.39,0.22,0.65
2.0636608600616455,0.24,-0.22,0.06,0.33
2.073882818222046,0.01,-0.09,-0.04,0.09
2.083617925643921,-0.07,-0.15,-0.06,0.17
2.0967490673065186,-0.32,-0.29,0.11,0.44
2.107693910598755,-1.44,1.02,0.44,1.81
2.1143579483032227,-2.12,1.53,0.42,2.64
2.1271660327911377,-0.9,0.54,0.31,1.09
2.1524198055267334,0.31,0.06,0.1,0.33
2.154202938079834,0.38,-0.08,-0.22,0.44
2.155822992324829,0.07,0.14,-0.26,0.3
2.164141893386841,0.15,-0.04,0.06,0.16
2.1741321086883545,0.67,-0.49,0.01,0.83
2.1856348514556885,1.15,-0.67,-0.53,1.43
2.194375991821289,1.47,-0.93,-1.36,2.2
2.208214044570923,1.58,-1.43,-1.79,2.78
2.2145369052886963,0.88,-0.85,-1.61,2.02
2.2279109954833984,-0.34,0.46,-1.87,1.95
2.2496140003204346,-0.96,1.02,-1.96,2.4
2.251405954360962,0.25,-0.01,-1.6,1.61
2.2546308040618896,2.17,-1.6,-1.1,2.91
2.264940023422241,2.77,-2.22,-1.28,3.77
2.275015115737915,2.08,-1.84,-1.4,3.1
2.2848050594329834,0.49,-0.74,-1.74,1.95
2.297804117202759,-3.11,1.26,-0.67,3.42
2.3080661296844482,-6.28,2.78,-0.85,6.92
2.3173158168792725,-5.77,2.62,-0.53,6.35
2.3254101276397705,-2.07,1.56,1.53,3.0
2.3556320667266846,1.31,-0.16,2.8,3.09
2.3573899269104004,2.02,-1.53,2.3,3.42
2.358909845352173,1.64,-1.25,1.92,2.81
2.365154981613159,0.4,-0.6,1.75,1.89
2.3753678798675537,-0.91,-0.02,1.34,1.61
2.3854877948760986,-0.84,0.15,0.92,1.25
2.395556926727295,0.35,-0.37,1.14,1.24
2.405735969543457,1.19,-0.76,1.58,2.11
2.4183881282806396,1.1,-0.73,1.39,1.91
2.4285309314727783,0.39,-0.31,0.61,0.78
2.456486940383911,-0.27,-0.05,-0.1,0.29
2.4582178592681885,-0.63,0.01,-0.31,0.7
2.4597671031951904,-0.36,0.66,-0.43,0.86
2.4658010005950928,-0.23,0.32,-0.22,0.45
2.475739002227783,-0.18,-0.12,-0.12,0.24
2.4860169887542725,0.06,0.73,-0.09,0.73
2.4962270259857178,-0.2,-0.14,-0.29,0.37
2.5066750049591064,-0.14,0.28,-0.13,0.33
2.5196640491485596,-0.37,0.36,0.31,0.6
2.526711940765381,-0.64,0.44,0.41,0.87
2.557062864303589,-0.71,-0.01,0.14,0.72
2.5596299171447754,-0.58,0.59,0.25,0.86
2.5611679553985596,-0.38,0.35,0.42,0.66
2.5664241313934326,-0.12,0.29,0.08,0.32
2.5764338970184326,0.26,-0.59,-0.29,0.7
2.586718797683716,0.47,-0.02,-0.32,0.56
2.5967350006103516,0.17,0.04,-0.4,0.43
2.609441041946411,-0.14,-0.03,-0.55,0.56
2.617156982421875,-0.33,0.36,-0.33,0.58
2.629944086074829,-0.11,0.23,-0.31,0.4
2.6525819301605225,0.34,-0.32,-0.41,0.62
2.6543149948120117,0.35,-0.43,-0.22,0.59
2.657064914703369,0.22,0.11,-0.21,0.32
2.6668779850006104,0.13,-0.27,0.04,0.3
2.677299976348877,0.07,-0.28,0.2,0.35
2.687019109725952,-0.45,0.43,-0.04,0.62
2.6978209018707275,-0.88,0.95,-0.23,1.31
2.71042799949646,-0.11,-0.26,0.0,0.28
2.7178328037261963,0.48,-0.47,0.34,0.75
2.730254888534546,-0.02,0.2,0.42,0.46
2.752753973007202,-0.5,0.7,0.11,0.86
2.754333019256592,-0.24,-0.18,-0.04,0.3
2.757615804672241,0.41,-0.39,-0.11,0.57
2.767507791519165,-0.02,0.25,0.2,0.32
2.7775371074676514,-0.23,-0.14,0.43,0.5
2.787811040878296,-0.33,0.47,0.1,0.58
2.797705888748169,-0.66,0.57,-0.36,0.94
2.808150053024292,-0.9,0.74,-0.55,1.28
2.8203790187835693,-0.98,0.84,-0.38,1.34
2.8283660411834717,-0.9,0.85,-0.2,1.25
2.8570849895477295,-0.96,0.81,0.0,1.25
2.859489917755127,-0.96,0.74,-0.05,1.21
2.860909938812256,-0.7,0.59,-0.39,0.99
2.8681929111480713,-0.34,0.31,-0.53,0.7
2.87837290763855,-0.21,0.31,-0.63,0.73
2.8880579471588135,-0.29,0.36,-0.79,0.91
2.898721933364868,-0.39,0.4,-0.87,1.03
2.9117839336395264,-0.4,0.44,-0.92,1.09
2.9188380241394043,-0.61,0.64,-0.51,1.02
2.9322879314422607,-0.82,0.59,0.14,1.01
2.9585800170898438,-0.76,0.51,0.64,1.11
2.960326910018921,-0.68,0.54,0.84,1.2
2.9618749618530273,-0.82,1.25,0.61,1.61
2.9686009883880615,-1.1,0.21,0.43,1.19
2.9788978099823,-0.64,0.35,0.52,0.89
2.988640069961548,-0.94,1.0,0.3,1.4
2.998999834060669,-1.25,1.51,-0.17,1.96
3.0093979835510254,-0.94,1.34,-0.91,1.87
3.022495985031128,-0.82,0.39,-1.07,1.4
3.029680013656616,-1.76,0.97,-1.22,2.35
3.0584161281585693,-2.27,2.25,-1.35,3.46
3.060910940170288,-2.38,2.11,-1.32,3.44
3.0623838901519775,-2.13,1.84,-1.3,3.1
3.0691709518432617,-2.0,1.62,-0.56,2.63
3.0796189308166504,-3.37,1.97,-0.07,3.9
3.089148998260498,-4.37,2.91,0.58,5.28
3.0999391078948975,-5.57,4.46,0.56,7.15
3.1129848957061768,-7.48,7.7,-1.32,10.81
3.1229989528656006,-10.14,9.98,-6.47,15.62
3.1301448345184326,-10.66,10.59,-7.72,16.89
3.155097007751465,-10.66,11.7,-9.62,18.52
3.1575710773468018,-9.2,11.96,-9.51,17.83
3.1596949100494385,-4.48,9.29,-5.93,11.89
3.1697049140930176,-0.17,7.07,-0.48,7.08
3.1799728870391846,0.76,5.14,0.91,5.27
3.1898319721221924,-0.03,2.97,-0.79,3.07
3.2025978565216064,0.78,2.89,-3.02,4.25
3.2105929851531982,1.42,5.08,-4.4,6.86
3.22370982170105,-1.28,4.53,-4.99,6.85
3.2329769134521484,-5.02,0.85,-3.88,6.4
3.258507013320923,-10.52,-6.89,-3.59,13.07
3.2607669830322266,-10.41,-13.78,-3.91,17.7
3.2623860836029053,-3.69,-6.46,1.55,7.59
3.2703731060028076,-10.13,-2.42,-2.14,10.63
3.2804601192474365,-16.96,-3.03,-4.61,17.83
3.290731906890869,-16.72,-3.2,-5.9,18.01
3.3005189895629883,-15.5,-3.47,-4.83,16.6
3.314018964767456,-13.12,-4.15,-4.19,14.38
3.3240368366241455,-9.59,-5.16,-2.89,11.26
3.3334670066833496,-8.08,-5.55,-3.15,10.29
3.3557419776916504,-8.06,-4.91,-3.9,10.21
3.3583381175994873,-8.05,-4.0,-4.13,9.89
3.3609259128570557,-7.49,-3.55,-4.22,9.3
3.371103048324585,-6.66,-3.51,-4.14,8.59
3.3811609745025635,-5.99,-3.25,-3.93,7.86
3.3913700580596924,-6.01,-2.29,-4.03,7.58
3.404294013977051,-6.15,-1.04,-4.49,7.68
3.4112699031829834,-5.57,-0.37,-4.52,7.18
3.42502498626709,-4.49,-0.24,-3.87,5.93
3.431321859359741,-3.53,-0.04,-3.09,4.69
3.4562230110168457,-2.71,0.53,-2.24,3.55
3.458753824234009,-1.74,1.42,-1.6,2.75
3.461284875869751,-0.96,2.67,-1.4,3.16
3.47155499458313,-0.48,4.15,-1.59,4.47
3.4817569255828857,0.24,5.15,-1.38,5.33
3.4949820041656494,1.39,5.76,-0.6,5.95
3.5021309852600098,2.66,6.17,0.06,6.71
3.5146729946136475,3.72,6.55,0.26,7.53
3.52223801612854,4.58,6.94,0.29,8.32
3.535064935684204,5.59,7.32,0.74,9.24
3.561457872390747,7.34,7.62,1.97,10.76
3.563999891281128,9.7,7.82,3.5,12.94
3.5656378269195557,12.19,7.62,4.58,15.08
3.5764658451080322,14.17,7.03,4.92,16.56
3.5822160243988037,15.36,6.4,4.61,17.26
3.5924007892608643,16.34,5.8,4.39,17.88
3.605898141860962,17.43,4.94,4.46,18.65
3.6125080585479736,18.19,4.32,4.31,19.18
3.625666856765747,18.09,4.16,3.87,18.96
3.632521867752075,17.14,4.55,4.04,18.18
3.6577579975128174,17.26,14.69,3.7,22.96
3.660200834274292,17.33,21.48,2.62,27.72
3.6624648571014404,15.2,4.4,0.93,15.85
3.6727898120880127,11.28,-11.69,6.52,17.5
3.6827499866485596,9.33,-3.24,5.2,11.16
3.693222999572754,0.53,1.41,0.0,1.5
3.706005811691284,-6.29,0.79,3.2,7.1
3.71294903755188,-9.37,2.38,8.92,13.15
3.72575306892395,-7.54,5.37,10.78,14.2
3.733475923538208,0.4,0.28,3.47,3.5
3.760822057723999,5.78,-1.48,-2.34,6.4
3.762985944747925,2.6,0.63,-0.93,2.83
3.764551877975464,-1.85,0.33,-1.75,2.56
3.773236036300659,-0.61,-0.06,-1.21,1.35
3.7835190296173096,2.18,-0.5,0.52,2.29
3.7935378551483154,1.56,0.05,0.34,1.59
3.8036458492279053,-0.24,-0.12,0.07,0.27
3.816809892654419,-0.55,0.32,-0.04,0.63
3.8263261318206787,0.49,-0.1,1.09,1.19
3.833717107772827,0.4,-0.14,1.06,1.14
3.8603649139404297,-0.15,0.11,1.37,1.38
3.862823963165283,-0.1,0.09,0.64,0.65
3.8644258975982666,-0.03,0.18,-0.69,0.71
3.8739898204803467,-0.25,0.23,-1.52,1.55
3.883794069290161,-0.23,0.14,-1.53,1.55
3.894382953643799,-0.12,0.13,-0.7,0.72
3.908052921295166,-0.13,0.11,-0.03,0.17
3.914417028427124,-0.14,0.06,0.06,0.16
3.9277870655059814,-0.27,0.14,-0.13,0.33
3.934528112411499,-0.3,0.18,-0.09,0.36
3.9604690074920654,-0.21,0.16,-0.17,0.31
3.9628450870513916,-0.17,0.16,-0.37,0.43
3.964402914047241,-0.27,0.21,-0.66,0.74
3.974548101425171,-0.37,0.25,-0.75,0.87
3.984280824661255,-0.3,0.21,-0.44,0.57
3.994377851486206,-0.45,0.38,-0.43,0.72
4.007943868637085,-0.78,0.61,-0.65,1.18
4.014810800552368,-0.74,0.63,-0.61,1.14
4.027703046798706,-0.62,0.63,-0.4,0.97
4.0326879024505615,-0.66,0.62,-0.43,1.0
4.035920858383179,-0.92,0.84,-0.47,1.33
4.0537519454956055,-1.2,0.96,-0.55,1.63
4.056246042251587,-1.41,1.0,-0.53,1.8
4.0658118724823,-1.35,0.93,-0.44,1.69
4.0759618282318115,-1.17,0.84,-0.11,1.44
4.086181879043579,-1.29,0.96,0.15,1.61
4.1007750034332275,-1.62,1.21,0.17,2.02
4.107852935791016,-2.02,1.51,0.1,2.52
4.116097927093506,-2.58,2.28,-0.51,3.48
4.129349946975708,-3.21,3.02,-1.0,4.51
4.13673996925354,-3.92,3.61,-1.16,5.45
4.154775857925415,-4.91,4.48,-0.64,6.67
4.157294988632202,-6.28,5.05,-0.85,8.1
4.166353940963745,-7.66,6.03,-0.71,9.77
4.176328897476196,-9.75,7.5,-0.59,12.31
4.186456918716431,-12.59,11.06,-3.43,17.1
4.200062990188599,-15.49,14.92,-8.94,23.29
4.206960916519165,-18.1,14.96,-11.56,26.17
4.21999192237854,-18.37,13.83,-13.64,26.73
4.22671914100647,-13.64,12.61,-12.78,22.54
4.237274885177612,-5.3,11.41,-8.98,15.45
4.256921052932739,1.05,7.46,-5.4,9.26
4.258660078048706,2.36,0.35,-2.9,3.75
4.266839981079102,1.92,-0.03,-2.43,3.09
4.277010917663574,-2.19,0.56,-5.71,6.14
4.286871910095215,-10.71,-8.2,-6.79,15.1
4.297274827957153,-11.63,-16.15,-4.6,20.42
4.3102028369903564,-5.45,-9.4,-1.41,10.95
4.317306995391846,-11.2,-5.75,-2.75,12.88
4.331540822982788,-18.0,-6.83,-5.02,19.89
4.3377439975738525,-17.79,-7.53,-5.49,20.08
4.355684995651245,-15.48,-7.26,-4.84,17.76
4.357386827468872,-12.4,-6.96,-4.3,14.85
4.367523908615112,-10.26,-7.58,-3.65,13.26
4.377426862716675,-9.19,-7.95,-3.5,12.64
4.38752007484436,-8.58,-7.56,-2.69,11.74
4.400141954421997,-8.62,-6.58,-2.26,11.07
4.408052921295166,-8.58,-5.6,-2.36,10.51
4.420263051986694,-8.1,-4.72,-2.38,9.67
4.428246974945068,-7.48,-3.68,-2.18,8.61
4.441261053085327,-6.95,-2.67,-2.02,7.71
4.460007905960083,-6.52,-1.88,-1.73,7.0
4.461745023727417,-5.88,-1.27,-1.02,6.1
4.46783185005188,-5.06,-0.71,-0.17,5.11
4.478174924850464,-4.23,-0.15,0.38,4.24
4.488048791885376,-3.48,0.54,0.7,3.59
4.498699903488159,-2.93,1.63,0.63,3.41
4.511263132095337,-2.12,3.06,0.52,3.75
4.518671989440918,-0.83,4.62,0.47,4.71
4.531494855880737,0.84,6.23,0.19,6.28
4.541814088821411,2.68,7.9,-0.37,8.35
4.561105012893677,4.73,9.82,-1.17,10.96
4.563575983047485,7.54,11.55,-1.91,13.92
4.568665981292725,11.24,12.25,-1.97,16.74
4.578635931015015,15.25,12.05,-0.44,19.44
4.6011130809783936,21.79,10.06,6.37,24.83
4.611006021499634,23.86,9.51,8.5,27.05
4.619150876998901,30.03,19.22,6.04,36.16
4.631734132766724,35.47,22.92,0.38,42.23
4.639017820358276,41.74,18.01,0.27,45.46
4.663184881210327,30.83,-12.35,8.1,34.18
4.665673017501831,32.37,-16.7,8.29,37.35
4.668204069137573,14.58,-14.66,-6.96,21.81
4.678334951400757,-4.92,-2.65,7.52,9.36
4.688632965087891,-21.16,7.29,33.44,40.23
4.698383092880249,-9.58,9.18,10.27,16.77
4.711374044418335,1.54,2.88,-8.45,9.05
4.719031095504761,-0.16,1.84,1.49,2.37
4.7314817905426025,-4.91,3.65,1.7,6.34
4.742139101028442,-1.64,-0.38,0.1,1.68
4.760380983352661,3.19,-0.86,-1.28,3.54
4.762862920761108,0.85,0.07,-1.19,1.46
4.768584966659546,-1.19,0.38,-0.23,1.27
4.778804063796997,0.19,-0.43,1.15,1.24
4.788828134536743,1.45,-0.24,0.9,1.72
4.802160024642944,0.56,-0.33,0.06,0.65
4.809295892715454,-0.66,0.43,-1.17,1.41
4.822614908218384,-1.21,0.92,-1.24,1.96
4.829633951187134,-1.45,0.93,-0.66,1.84
4.842622995376587,-0.9,0.59,0.07,1.07
4.867902994155884,0.1,0.14,0.43,0.46
4.869704961776733,0.3,-0.16,0.46,0.57
4.8712239265441895,0.16,-0.08,-0.21,0.27
4.879496812820435,0.01,0.08,-0.67,0.67
4.889496088027954,-0.22,0.27,-0.72,0.79
4.899463891983032,-0.37,0.37,-0.58,0.78
4.910116910934448,-0.45,0.47,-0.42,0.77
4.92357611656189,-0.91,0.78,-0.2,1.21
4.930248975753784,-1.21,0.8,0.23,1.46
4.943445920944214,-0.69,0.53,0.69,1.11
4.963450908660889,-0.51,0.54,0.79,1.08
4.965233087539673,-0.74,0.75,0.41,1.13
4.969961881637573,-1.11,0.97,-0.12,1.47
4.979982137680054,-1.36,1.2,-0.65,1.92
4.990203142166138,-1.41,1.1,-0.6,1.88
5.000484943389893,-1.22,0.98,-0.2,1.57
5.013273000717163,-0.96,0.9,-0.1,1.31
5.023612022399902,-0.86,0.76,0.07,1.14
5.030694961547852,-0.92,0.78,0.06,1.2
5.043820142745972,-1.22,1.21,-0.5,1.78
5.061736822128296,-1.87,1.83,-0.9,2.76
5.063514947891235,-2.23,2.86,-1.46,3.9
5.070312976837158,-2.95,3.45,-1.66,4.83
5.0808470249176025,-4.46,3.74,-1.41,5.98
5.0912559032440186,-5.85,4.65,-1.22,7.57
5.103302955627441,-7.27,5.85,-1.38,9.43
5.111090898513794,-8.93,7.51,-1.23,11.73
5.124759912490845,-12.15,10.39,-1.81,16.08
5.131615877151489,-15.48,15.28,-4.43,22.19
5.144612073898315,-19.85,17.4,-9.47,28.04
5.1656458377838135,-21.45,16.01,-11.48,29.12
5.167379140853882,-16.08,14.81,-11.5,24.7
5.171586990356445,-5.36,12.59,-8.1,15.9
5.181106805801392,3.14,7.35,-5.75,9.84
5.191393136978149,5.1,-2.55,-1.9,6.01
5.201905012130737,7.2,4.31,-0.45,8.4
5.214319944381714,0.6,2.99,-6.45,7.13
5.221710920333862,-6.18,-8.09,-5.44,11.54
5.234422922134399,-10.37,-17.97,-7.31,21.99
5.241755962371826,-5.97,-11.13,-4.2,13.31
5.270402908325195,-11.08,-5.45,-5.56,13.54
5.272120952606201,-19.28,-5.39,-5.54,20.77
5.273671865463257,-20.49,-5.55,-5.62,21.95
5.28201699256897,-19.59,-6.49,-4.91,21.21
5.294168949127197,-17.19,-7.4,-5.64,19.54
5.301893949508667,-12.8,-7.49,-2.79,15.09
5.312340974807739,-11.15,-7.42,-1.1,13.43
5.325384855270386,-11.31,-7.37,-0.98,13.53
5.334342002868652,-11.09,-7.03,-0.63,13.14
5.344594955444336,-10.66,-6.11,-0.33,12.29
5.365315914154053,-10.29,-4.94,-0.85,11.44
5.367088079452515,-9.96,-3.36,-1.71,10.64
5.372071027755737,-9.36,-1.47,-2.72,9.85
5.3821728229522705,-7.99,-0.25,-3.16,8.59
5.392514944076538,-5.94,-0.01,-2.68,6.51
5.402362108230591,-4.08,0.09,-1.13,4.23
5.416116952896118,-2.86,0.95,0.43,3.04
5.422757863998413,-2.19,2.15,1.39,3.36
5.435006856918335,-1.95,3.27,1.05,3.94
5.443033933639526,-1.6,4.41,0.3,4.7
5.4702980518341064,-0.48,5.94,0.34,5.96
5.4720659255981445,1.06,7.61,0.82,7.72
5.473582983016968,2.58,9.14,0.88,9.53
5.482824087142944,4.16,10.35,0.54,11.16
5.493512868881226,6.38,11.36,0.29,13.03
5.5061399936676025,9.73,12.03,0.91,15.49
5.513780832290649,14.13,12.6,2.54,19.1
5.525956869125366,18.54,12.71,4.97,23.02
5.534416913986206,21.65,12.79,6.53,25.97
5.547120809555054,24.24,12.96,5.9,28.11
5.5699779987335205,27.52,14.1,4.12,31.19
5.571729898452759,31.49,14.8,3.2,34.94
5.573904991149902,37.85,15.39,1.43,40.88
5.586277008056641,32.24,-3.16,4.21,32.66
5.594520807266235,29.95,-17.27,10.09,36.01
5.6036999225616455,25.36,-10.63,-5.83,28.1
5.61375093460083,4.91,-4.94,-9.86,12.07
5.623882055282593,-17.42,2.18,10.67,20.54
5.636368036270142,-25.39,7.6,28.9,39.21
5.644243955612183,-1.87,10.46,5.9,12.15
5.671461820602417,6.73,-1.93,-4.03,8.07
5.6731719970703125,0.88,0.16,3.66,3.76
5.6745898723602295,-5.1,2.25,5.01,7.49
5.683936834335327,-0.25,0.2,2.98,2.99
5.694217920303345,2.58,0.06,-2.28,3.44
5.704172849655151,-0.88,0.18,-4.48,4.56
5.714495897293091,-0.82,0.7,-3.71,3.86
5.727685928344727,0.89,-0.63,-0.34,1.14
5.736314058303833,1.27,-0.59,0.92,1.67
5.744316816329956,0.25,-0.12,0.86,0.9
5.771358966827393,-0.69,0.32,0.92,1.19
5.774101972579956,-0.74,0.55,0.13,0.93
5.775702953338623,-0.72,0.48,-0.67,1.09
5.784449815750122,-0.37,0.28,-0.27,0.53
5.794473886489868,0.05,0.05,0.28,0.28
5.805155038833618,-0.12,0.34,-0.03,0.36
5.81778883934021,-0.52,0.36,-0.72,0.95
5.825157880783081,-0.45,0.44,-0.99,1.17
5.837328910827637,-0.36,0.38,-0.88,1.02
5.845435857772827,-0.33,0.29,-0.6,0.74
5.871599912643433,-0.46,0.4,-0.33,0.69
5.874008893966675,-0.63,0.54,-0.01,0.82
5.875559091567993,-0.74,0.57,0.1,0.93
5.885200023651123,-0.63,0.52,0.39,0.9
5.895249128341675,-0.49,0.33,0.6,0.84
5.9050209522247314,-0.48,0.48,0.46,0.82
5.916026830673218,-0.79,0.86,-0.01,1.16
5.928241968154907,-1.08,0.9,-0.26,1.42
5.9381420612335205,-1.09,0.88,-0.23,1.41
5.947680950164795,-1.05,0.93,-0.11,1.4
5.9691550731658936,-1.17,1.1,0.15,1.61
5.971563100814819,-1.35,1.23,0.26,1.84
5.975569009780884,-1.07,1.33,0.25,1.72
5.985541105270386,-1.32,1.63,0.21,2.1
5.995599031448364,-2.09,2.13,-0.09,2.98
6.006121873855591,-2.85,2.81,-0.63,4.05
6.018276929855347,-3.75,3.6,-1.08,5.3
6.029064893722534,-4.19,4.06,-1.51,6.02
6.036536931991577,-5.16,4.32,-1.41,6.87
6.048954010009766,-6.8,5.27,-2.13,8.86
6.0729711055755615,-8.4,6.82,-2.24,11.04
6.074783086776733,-10.64,9.94,-3.06,14.87
6.0764548778533936,-13.89,15.28,-7.36,21.92
6.088989973068237,-17.28,16.25,-11.87,26.52
6.097291946411133,-16.43,14.06,-13.52,25.5
6.109398126602173,-9.96,12.75,-11.38,19.78
6.116286039352417,0.15,10.98,-7.14,13.09
6.126765966415405,5.7,0.96,-2.42,6.26
6.1401660442352295,8.8,-6.45,0.1,10.91
6.147114038467407,6.4,-0.66,-5.18,8.26
6.175701856613159,-3.06,-2.63,-6.1,7.31
6.178161859512329,-12.85,-14.69,-7.1,20.76
6.1797568798065186,-12.72,-10.16,-5.03,17.03
6.186746835708618,-14.1,-6.07,-6.61,16.71
6.1971399784088135,-18.06,-6.1,-5.38,19.8
6.207611799240112,-18.32,-6.35,-6.05,20.31
6.220165967941284,-15.55,-6.72,-7.03,18.34
6.227459907531738,-11.1,-7.68,-6.46,14.96
6.24061393737793,-8.23,-8.81,-4.11,12.73
6.247751951217651,-7.69,-8.57,-3.34,11.98
6.2740819454193115,-8.46,-7.54,-3.65,11.9
6.276860952377319,-9.1,-6.52,-3.93,11.86
6.2785069942474365,-8.95,-5.44,-3.48,11.03
6.2873759269714355,-8.2,-4.3,-2.7,9.64
6.297530889511108,-7.66,-2.98,-2.21,8.51
6.307780981063843,-7.65,-1.26,-2.33,8.09
6.318095922470093,-7.42,0.11,-2.31,7.77
6.330671072006226,-6.32,0.68,-1.58,6.54
6.337951898574829,-5.06,0.95,-0.66,5.19
6.350755929946899,-4.04,1.53,-0.07,4.32
6.375806093215942,-3.15,2.56,-0.16,4.06
6.378225088119507,-2.28,3.79,-0.5,4.45
6.37975287437439,-1.44,4.93,-0.62,5.17
6.397737979888916,-0.62,5.83,-0.46,5.88
6.399317979812622,0.46,6.57,-0.28,6.59
6.408132791519165,1.75,6.96,-0.13,7.17
6.4208409786224365,3.08,7.1,0.23,7.74
6.4281837940216064,4.35,7.23,0.58,8.45
6.441391944885254,5.54,7.49,0.96,9.36
6.448630094528198,7.53,8.53,1.39,11.46
6.475811958312988,12.79,14.09,1.19,19.06
6.478286981582642,16.81,13.1,1.28,21.35
6.479892015457153,20.06,8.79,4.92,22.44
6.488499879837036,22.9,8.48,7.89,25.66
6.501209020614624,24.73,8.92,8.49,27.62
6.509539842605591,27.54,9.77,8.43,30.41
6.5219128131866455,29.28,10.71,6.82,31.91
6.531773805618286,31.02,12.02,4.93,33.63
6.5401129722595215,20.69,-9.4,10.03,24.84
6.5517449378967285,20.01,-11.39,11.78,25.86
6.5722479820251465,7.64,-7.03,3.56,10.97
6.574198007583618,-5.12,1.56,19.37,20.09
6.578898906707764,-13.07,6.74,15.91,21.66
6.597408056259155,-9.2,4.15,-5.6,11.54
6.598967790603638,-2.34,4.0,-2.29,5.16
6.6091530323028564,2.58,0.25,-2.06,3.31
6.6227500438690186,1.28,0.7,-4.84,5.05
6.629834890365601,-1.37,-0.4,-4.66,4.87
6.64216685295105,-0.42,0.76,-2.37,2.52
6.649793863296509,0.72,-0.23,-0.66,1.0
6.678380966186523,-0.39,-0.07,1.15,1.21
6.680799961090088,-1.14,0.36,2.9,3.13
6.682392835617065,-0.24,0.02,3.93,3.93
6.689568996429443,1.06,-0.65,2.4,2.7
6.6997599601745605,0.66,0.11,0.73,0.99
6.710047006607056,-0.57,0.45,-0.58,0.92
6.723067998886108,-0.59,0.49,-1.2,1.42
6.7304041385650635,-0.49,0.51,-1.12,1.32
6.74281907081604,-0.84,0.58,-0.65,1.21
6.7503697872161865,-0.65,0.46,-0.07,0.79
6.778976917266846,-0.23,0.31,-0.07,0.39
6.781024932861328,-0.12,0.24,-0.25,0.36
6.782432794570923,-0.25,0.14,-0.23,0.36
6.790141820907593,-0.21,0.21,-0.07,0.3
6.800081014633179,-0.23,0.37,0.09,0.44
6.810346841812134,-0.36,0.37,0.03,0.51
6.820799112319946,-0.62,0.66,0.21,0.92
6.833321809768677,-1.53,1.29,0.11,2.0
6.8432581424713135,-1.79,1.27,0.17,2.2
6.850476980209351,-1.53,1.29,0.47,2.05
6.876147985458374,-1.18,1.15,0.42,1.7
6.878809928894043,-1.07,1.14,0.03,1.56
6.880435943603516,-1.23,1.28,-0.26,1.79
6.891010046005249,-1.53,1.52,-0.18,2.16
6.900723934173584,-1.61,1.59,-0.11,2.26
6.911139965057373,-1.66,1.98,-0.31,2.6
6.9242470264434814,-1.35,2.73,-0.97,3.19
6.931504964828491,-2.0,2.71,-1.41,3.65
6.943964004516602,-3.09,3.21,-1.55,4.71
6.951627969741821,-4.05,4.2,-1.91,6.13
6.978616952896118,-5.02,5.08,-1.79,7.36
6.981145143508911,-5.8,5.06,-1.99,7.95
6.982666015625,-6.65,4.64,-1.83,8.31
6.991588830947876,-8.21,4.99,-3.17,10.11
7.001529932022095,-10.37,6.7,-4.6,13.17
7.011529922485352,-13.25,10.47,-7.09,18.31
7.021869897842407,-16.59,16.8,-10.94,26.02
7.035784006118774,-20.31,19.42,-16.37,32.52
7.042804002761841,-19.28,17.67,-17.8,31.63
7.055700063705444,-9.9,16.82,-16.61,25.62
7.076663970947266,1.17,8.61,-13.77,16.28
7.0784361362457275,6.36,-9.53,-2.01,11.63
7.0816991329193115,7.85,-8.0,-2.58,11.5
7.092170000076294,4.4,-8.11,-6.83,11.47
7.101963996887207,-3.18,-21.64,-3.9,22.21
7.112677812576294,-10.18,-18.89,-4.66,21.95
7.125355005264282,-14.21,-8.93,-10.6,19.85
7.132591962814331,-19.16,-5.79,-10.17,22.45
7.14529013633728,-21.1,-4.45,-9.76,23.67
7.152660131454468,-21.45,-3.19,-9.45,23.65
7.181753873825073,-19.87,-4.4,-8.37,22.0
7.184222936630249,-12.15,-7.06,-6.74,15.58
7.185827970504761,-6.29,-9.25,-2.91,11.55
7.1934568881988525,-5.87,-9.07,-0.26,10.8
7.202276945114136,-7.17,-7.1,0.77,10.11
7.212865114212036,-8.18,-5.89,-0.32,10.08
7.222947835922241,-8.64,-4.85,-1.0,9.95
7.235760927200317,-8.74,-2.99,-0.73,9.26
7.2430219650268555,-8.74,-1.07,-0.44,8.81
7.256335020065308,-8.5,0.49,-0.32,8.52
7.280466794967651,-7.59,1.39,0.01,7.71
7.2829320430755615,-5.7,1.52,0.5,5.92
7.284549951553345,-3.65,2.08,1.3,4.39
7.293217897415161,-1.98,3.4,1.81,4.33
7.302983999252319,-0.58,4.61,1.94,5.03
7.313804864883423,0.48,5.59,1.77,5.88
7.326433897018433,1.6,6.68,1.19,6.97
7.333342790603638,2.89,7.94,0.67,8.47
7.346069097518921,4.41,9.75,0.12,10.7
7.357325792312622,6.57,11.84,-0.6,13.55
7.377715826034546,9.23,13.52,-0.2,16.37
7.380213022232056,12.49,14.65,1.14,19.28
7.384095907211304,16.44,14.29,3.76,22.1
7.396080017089844,19.77,13.66,6.65,24.93
7.404508829116821,22.93,12.86,8.64,27.67
7.414510011672974,24.85,9.14,10.01,28.3
7.427875995635986,26.57,8.78,9.65,29.6
7.434839963912964,29.98,20.59,4.78,36.68
7.4471070766448975,30.44,18.31,1.3,35.54
7.453961133956909,18.91,-14.78,9.8,25.92
7.482067823410034,23.72,-10.67,5.32,26.54
7.484628915786743,15.47,-5.6,-8.79,18.65
7.486221075057983,3.96,-6.11,-3.34,8.01
7.494127035140991,-6.9,1.57,13.88,15.57
7.5043089389801025,-6.88,3.86,9.83,12.6
7.514549970626831,-1.28,5.57,-5.12,7.67
7.5270750522613525,-5.25,2.93,3.29,6.85
7.534776926040649,-5.47,3.22,6.45,9.04
7.547497987747192,-1.2,0.55,5.56,5.71
7.55482292175293,2.95,-1.17,0.87,3.29
7.582428932189941,0.71,0.84,-0.22,1.12
7.584892988204956,-1.39,0.59,-0.99,1.8
7.586496114730835,-0.57,0.62,-2.11,2.27
7.594742059707642,0.16,0.31,-2.63,2.65
7.6048150062561035,-0.14,0.23,-1.89,1.9
7.614781141281128,-0.11,0.0,-0.11,0.15
7.625117063522339,0.33,-0.21,1.13,1.19
7.6372950077056885,0.49,-0.34,1.2,1.34
7.64556097984314,0.12,-0.03,0.78,0.78
7.658730983734131,-0.3,0.12,0.29,0.43
7.685223817825317,-0.39,0.21,-0.13,0.46
7.686814069747925,-0.35,0.27,-0.81,0.92
7.688420057296753,-0.37,0.4,-1.18,1.29
7.695482969284058,-0.62,0.54,-1.16,1.42
7.705458879470825,-0.68,0.45,-0.67,1.05
7.7153639793396,-0.43,0.26,-0.29,0.58
7.7259299755096436,-0.08,0.06,-0.04,0.1
7.738452911376953,-0.11,0.18,-0.12,0.24
7.746037006378174,-0.56,0.63,-0.26,0.88
7.75914192199707,-1.04,0.73,0.04,1.27
7.7800819873809814,-1.31,1.05,-0.02,1.67
7.78174090385437,-1.53,1.29,0.03,2.0
7.785478830337524,-1.48,0.99,0.24,1.79
7.7958080768585205,-1.13,0.68,0.32,1.35
7.8058788776397705,-0.89,0.72,0.28,1.17
7.8161070346832275,-1.09,0.96,0.1,1.45
7.829535007476807,-1.56,1.46,-0.48,2.18
7.836604833602905,-2.12,1.93,-1.02,3.04
7.84886908531189,-2.76,2.51,-1.35,3.96
7.859086990356445,-3.42,3.06,-1.04,4.7
7.880309820175171,-4.0,3.55,-0.55,5.37
7.88280987739563,-4.42,3.78,-0.13,5.81
7.886258840560913,-4.38,4.0,0.32,5.94
7.896474123001099,-5.5,3.72,-0.13,6.64
7.906710863113403,-6.66,4.39,-0.79,8.01
7.916705846786499,-8.22,6.95,-1.81,10.91
7.929364919662476,-10.19,11.76,-5.16,16.39
7.936933994293213,-13.21,15.64,-8.76,22.26
7.950134992599487,-15.12,17.03,-12.19,25.83
7.959779977798462,-11.55,16.02,-13.79,24.08
7.985958814620972,-4.9,12.77,-10.72,17.37
7.9877541065216064,1.28,4.55,-6.07,7.69
7.9893059730529785,5.23,-7.84,-3.09,9.91
7.996949911117554,2.56,-5.97,-4.56,7.93
8.008733034133911,-9.1,-8.82,-7.55,14.75
8.017220973968506,-18.22,-11.06,-8.08,22.79
8.027397871017456,-19.2,-7.8,-7.15,21.92
8.029850959777832,-19.1,-7.86,-7.21,21.87
8.038472890853882,-18.82,-6.85,-5.49,20.76
8.051332950592041,-18.53,-6.03,-6.02,20.39
8.060858964920044,-15.61,-6.04,-6.86,18.08
8.07887601852417,-11.53,-6.93,-7.25,15.28
8.080652952194214,-9.23,-8.13,-6.11,13.73
8.088504076004028,-8.27,-8.0,-4.22,12.25
8.098321914672852,-7.94,-6.85,-2.78,10.84
8.108652830123901,-7.87,-5.7,-2.57,10.05
8.118680000305176,-7.81,-4.51,-2.73,9.42
8.12903094291687,-7.73,-2.9,-2.56,8.64
8.142017126083374,-7.49,-1.17,-2.23,7.9
8.149091958999634,-6.71,-0.17,-1.79,6.94
8.162221908569336,-5.44,0.08,-1.15,5.56
8.17838978767395,-4.09,0.32,-0.65,4.15
8.180105924606323,-3.16,1.03,-0.56,3.37
8.188824892044067,-2.91,1.93,-0.92,3.61
8.199122905731201,-2.83,2.86,-0.97,4.13
8.20932412147522,-2.52,3.92,-0.56,4.69
8.218913793563843,-1.7,4.88,-0.23,5.17
8.229789972305298,-0.21,5.34,0.07,5.34
8.242503881454468,1.45,5.67,0.05,5.85
8.24970293045044,2.62,6.15,-0.29,6.69
8.262557983398438,3.41,6.75,-0.4,7.57
8.282546997070312,4.15,7.7,-0.54,8.76
8.284280061721802,4.87,8.52,-0.73,9.84
8.289468050003052,5.76,8.72,-0.54,10.46
8.299474000930786,7.03,8.84,-0.32,11.29
8.309732913970947,8.74,8.81,0.18,12.41
8.319736003875732,10.59,8.68,1.25,13.74
8.3297860622406,12.41,8.27,3.04,15.21
8.343980073928833,14.47,7.03,4.96,16.83
8.35023808479309,16.74,5.46,6.2,18.66
8.363681077957153,18.0,4.25,6.85,19.72
8.38102102279663,18.46,3.68,7.26,20.17
8.382683038711548,19.88,3.29,8.25,21.77
8.390208005905151,22.26,3.3,9.63,24.47
8.400110006332397,30.42,25.42,7.53,40.35
8.41028904914856,24.37,19.12,-6.76,31.7
8.420243978500366,19.31,-17.82,6.57,27.08
8.43024492263794,22.78,-15.82,-2.31,27.83
8.443449974060059,13.79,-9.25,-1.19,16.64
8.450445890426636,-4.52,3.67,16.08,17.1
8.463201999664307,-15.82,4.69,14.08,21.69
8.482038974761963,-8.22,11.38,-0.07,14.03
8.483794927597046,-5.8,4.89,2.92,8.12
8.490875005722046,-0.43,-0.61,3.52,3.59
8.500807046890259,2.71,-1.04,1.62,3.32
8.510928869247437,0.62,0.75,0.13,0.98
8.520733118057251,-1.97,0.85,-1.92,2.87
8.533684968948364,-0.94,0.6,-2.74,2.95
8.543341875076294,0.44,0.15,-2.34,2.38
8.55140495300293,0.11,0.0,-1.55,1.55
8.564621925354004,-0.28,0.06,-0.33,0.43
8.584165811538696,0.21,-0.16,0.98,1.01
8.585907936096191,0.77,-0.46,1.09,1.41
8.59135890007019,0.53,-0.24,0.39,0.7
8.601816892623901,-0.46,0.31,-0.28,0.62
8.612058877944946,-0.93,0.53,-0.12,1.07
8.621668100357056,-0.63,0.43,0.36,0.84
8.63473391532898,0.09,-0.03,0.41,0.42
8.644865989685059,0.02,0.19,0.21,0.28
8.654301881790161,-0.41,0.19,-0.25,0.51
8.662575006484985,-0.4,0.29,-0.3,0.57
8.691758871078491,-0.3,0.28,-0.52,0.66
8.694268941879272,-0.19,0.1,-0.6,0.63
8.695834875106812,-0.23,0.26,-0.56,0.65
8.702178001403809,-0.46,0.4,-0.63,0.87
8.712228059768677,-0.7,0.49,-0.57,1.02
8.722289800643921,-0.78,0.53,-0.45,1.04
8.732610940933228,-0.79,0.56,-0.21,0.99
8.74564003944397,-0.82,0.55,0.17,1.0
8.755669832229614,-0.98,0.56,0.44,1.21
8.763145923614502,-1.08,0.71,0.39,1.35
8.791108846664429,-1.11,0.77,0.3,1.38
8.793653011322021,-1.02,0.56,0.12,1.16
8.795243978500366,-0.84,0.38,0.1,0.92
8.802540063858032,-0.84,0.56,-0.17,1.02
8.813071966171265,-1.16,1.12,-0.72,1.76
8.823050022125244,-1.88,1.62,-1.31,2.8
8.835962057113647,-2.65,1.93,-1.59,3.64
8.84310793876648,-3.13,2.49,-1.62,4.31
8.853494882583618,-3.54,2.88,-1.31,4.74
8.865729093551636,-3.82,2.78,-0.56,4.75
8.892412900924683,-3.42,2.79,-0.51,4.44
8.89506196975708,-3.98,2.66,-0.48,4.81
8.89667797088623,-5.37,3.38,-0.71,6.38
8.903237104415894,-6.98,5.19,-1.73,8.86
8.913599967956543,-8.41,7.99,-1.92,11.75
8.92368483543396,-11.75,12.3,-3.67,17.4
8.934715986251831,-15.76,15.93,-7.66,23.68
8.947791814804077,-17.06,17.79,-10.15,26.65
8.955066919326782,-12.63,16.35,-11.46,23.62
8.96648097038269,-5.03,13.75,-8.32,16.84
8.989134073257446,0.49,6.3,-3.21,7.08
8.992065906524658,4.46,-2.19,-1.79,5.28
8.99389910697937,1.27,0.67,-5.4,5.58
9.00402283668518,-9.06,-5.72,-8.74,13.82
9.013922929763794,-16.1,-13.03,-9.51,22.79
9.02439284324646,-16.86,-10.29,-7.06,20.97
9.036897897720337,-17.28,-7.61,-4.15,19.33
9.044620990753174,-18.36,-6.87,-4.26,20.06
9.058008909225464,-16.6,-7.88,-5.61,19.21
9.06479287147522,-13.4,-7.85,-6.34,16.77
9.094429969787598,-11.72,-7.69,-4.93,14.85
9.096969842910767,-11.65,-7.39,-3.67,14.27
9.098580121994019,-11.46,-6.84,-2.83,13.64
9.104404926300049,-10.94,-6.0,-2.26,12.68
9.114563941955566,-10.48,-4.8,-1.82,11.66
9.124488115310669,-10.13,-3.32,-1.65,10.78
9.13481092453003,-9.38,-1.99,-1.5,9.7
9.1475670337677,-8.17,-0.86,-1.57,8.36
9.155322790145874,-6.97,0.17,-1.81,7.2
9.167881965637207,-5.8,1.05,-1.71,6.13
9.189651012420654,-4.81,1.85,-1.39,5.33
9.192381143569946,-4.21,2.87,-1.48,5.3
9.195014953613281,-3.69,3.74,-1.81,5.55
9.20505690574646,-2.81,4.23,-2.06,5.48
9.2153639793396,-1.6,4.6,-2.1,5.3
9.22568678855896,-0.54,5.25,-2.05,5.66
9.238672018051147,0.46,6.09,-1.93,6.4
9.24581503868103,1.7,6.82,-1.95,7.29
9.2586829662323,2.9,7.53,-2.19,8.36
9.26581883430481,4.01,8.62,-2.29,9.77
9.294841051101685,5.64,10.11,-2.02,11.75
9.297455072402954,8.5,11.22,-0.89,14.1
9.299021005630493,12.62,11.08,0.86,16.81
9.305434942245483,16.98,9.63,2.72,19.7
9.315912961959839,20.13,7.79,4.12,21.97
9.325877904891968,21.93,6.16,4.8,23.27
9.338622808456421,22.63,4.09,5.2,23.57
9.348949909210205,22.75,2.62,5.59,23.57
9.357075929641724,22.66,2.51,6.55,23.72
9.369356870651245,22.5,2.86,7.44,23.87
9.390775918960571,22.09,2.83,8.43,23.81
9.393376111984253,29.75,26.41,7.97,40.57
9.396260976791382,20.73,25.34,-6.84,33.44
9.406358003616333,15.35,-11.95,-1.15,19.48
9.416535139083862,21.55,-17.12,-8.71,28.86
9.426538944244385,15.69,-12.0,-1.98,19.85
9.436604976654053,-6.73,2.23,17.02,18.43
9.449817895889282,-15.53,6.75,20.44,26.54
9.459353923797607,-6.77,12.19,6.14,15.23
9.466633081436157,-2.92,0.88,2.3,3.81
9.495714902877808,0.52,0.18,0.96,1.1
9.4981849193573,0.91,0.3,0.19,0.97
9.499746084213257,-0.5,0.68,0.01,0.84
9.50676703453064,-1.01,0.54,-2.58,2.82
9.517069101333618,-0.15,0.44,-4.23,4.25
9.527102947235107,0.04,0.0,-2.69,2.69
9.537024974822998,-0.02,-0.13,0.11,0.17
9.549981832504272,0.49,-0.16,1.73,1.8
9.557078123092651,0.8,-0.6,1.87,2.12
9.57008695602417,0.67,-0.29,1.38,1.56
9.592836141586304,0.01,0.13,-0.25,0.28
9.595321893692017,-0.56,0.4,-1.85,1.97
9.597336053848267,-0.68,0.3,-1.76,1.91
9.607570886611938,-0.29,0.08,-0.71,0.77
9.617514848709106,0.03,0.04,0.49,0.49
9.627705812454224,-0.47,0.37,0.34,0.68
9.637850046157837,-0.98,0.61,0.21,1.17
9.650781869888306,-0.8,0.44,0.44,1.01
9.660226106643677,-0.36,0.2,0.38,0.56
9.669759035110474,0.32,-0.22,0.0,0.38
9.692445039749146,0.28,-0.04,-0.42,0.5
9.694987058639526,-0.25,0.23,-0.66,0.74
9.69775390625,-0.66,0.45,-0.67,1.04
9.708017110824585,-0.85,0.54,-0.28,1.04
9.71806788444519,-0.88,0.59,-0.08,1.06
9.728222131729126,-0.84,0.63,0.11,1.05
9.738199949264526,-0.93,0.69,0.28,1.19
9.751308917999268,-1.16,0.9,0.2,1.48
9.760618925094604,-1.3,1.07,0.04,1.68
9.770625829696655,-1.49,1.16,0.08,1.89
9.792915105819702,-1.67,1.4,0.12,2.18
9.795492887496948,-1.74,1.55,0.0,2.33
9.798290967941284,-1.87,1.93,-0.54,2.74
9.80861783027649,-2.53,2.51,-0.88,3.67
9.818300008773804,-2.86,3.08,-1.38,4.42
9.82903790473938,-3.54,3.25,-1.51,5.03
9.842024087905884,-4.92,4.23,-1.72,6.71
9.848748922348022,-6.0,4.78,-1.62,7.84
9.861624002456665,-6.63,4.19,-1.97,8.08
9.87264895439148,-7.7,4.79,-1.95,9.27
9.894004106521606,-10.72,7.99,-2.79,13.65
9.896553993225098,-13.93,13.23,-5.92,20.1
9.899504899978638,-16.46,16.24,-9.69,25.07
9.910241842269897,-17.7,16.73,-12.32,27.29
9.921764135360718,-13.17,15.99,-12.75,24.32
9.929435968399048,-4.29,12.93,-7.22,15.41
9.942486047744751,2.3,4.78,-2.81,6.0
9.951486825942993,7.06,-4.64,-1.57,8.59
9.961771965026855,4.33,-2.75,-5.59,7.58
9.969681978225708,-6.83,-8.67,-7.07,13.1
10.000245809555054,-15.4,-10.79,-7.26,20.15
10.002756834030151,-17.4,-6.19,-7.63,19.98
10.004398107528687,-17.38,-4.32,-7.32,19.34
10.009608030319214,-17.13,-5.69,-7.15,19.41
10.019766092300415,-13.7,-8.18,-5.89,17.0
10.029786825180054,-10.23,-9.16,-3.81,14.25
10.039927959442139,-9.3,-9.41,-3.0,13.56
10.052869081497192,-9.77,-9.03,-3.58,13.77
10.060017824172974,-10.3,-7.99,-4.44,13.77
10.073862791061401,-10.18,-6.91,-4.39,13.06
10.09477686882019,-9.17,-6.1,-3.5,11.55
10.096556901931763,-7.81,-5.45,-2.63,9.88
10.09999394416809,-6.92,-4.6,-2.46,8.66
10.110327005386353,-6.59,-3.26,-2.8,7.86
10.120228052139282,-6.09,-2.04,-2.92,7.05
10.130505800247192,-5.21,-1.06,-2.3,5.79
10.140806913375854,-4.43,0.04,-1.5,4.67
10.15342092514038,-3.82,1.05,-0.54,3.99
10.160327911376953,-3.59,1.95,0.28,4.09
10.174690008163452,-3.94,2.95,0.75,4.97
10.19629693031311,-3.97,4.29,0.8,5.89
10.19811201095581,-2.88,5.36,0.73,6.12
10.200539827346802,-1.02,5.64,1.01,5.81
10.210663080215454,0.93,5.99,1.38,6.21
10.220809936523438,2.39,6.91,1.21,7.41
10.231032133102417,3.13,7.99,0.7,8.6
10.240962982177734,3.86,9.21,0.08,9.98
10.253868818283081,5.45,10.44,-0.27,11.78
10.261934041976929,8.2,10.98,0.68,13.72
10.274778127670288,11.92,10.87,2.58,16.33
10.296363115310669,15.97,9.95,4.66,19.38
10.29802680015564,18.73,8.92,5.43,21.44
10.301159143447876,20.25,7.57,5.02,22.19
10.311288118362427,21.55,5.88,5.15,22.92
10.322173833847046,22.21,4.08,5.9,23.33
10.331746816635132,20.93,2.89,6.39,22.07
10.341889142990112,17.28,3.35,7.06,18.96
10.354049921035767,14.67,3.32,7.89,16.98
10.36208200454712,14.99,6.8,8.26,18.41
10.375741004943848,19.93,31.22,5.61,37.46
10.396764039993286,9.15,5.91,-3.2,11.35
10.398541927337646,13.86,-9.8,1.17,17.01
10.401695966720581,12.64,-9.03,-7.41,17.21
10.412161111831665,6.33,-2.9,-5.57,8.91
10.422073125839233,-5.51,3.81,4.92,8.31
10.432217836380005,-7.77,5.6,12.21,15.51
10.442304849624634,-5.77,4.14,5.21,8.8
10.455569982528687,-1.31,0.1,2.69,2.99
10.46260380744934,-0.13,1.01,-0.37,1.08
10.476110935211182,0.51,-1.04,1.69,2.04
10.498595952987671,2.16,-0.21,4.24,4.76
10.500370979309082,1.37,-0.26,0.7,1.56
10.502282857894897,-0.9,0.34,-1.73,1.97
10.512688875198364,-0.98,0.66,-2.88,3.11
10.522499799728394,-0.17,0.14,-2.96,2.96
10.532740831375122,0.19,-0.1,-1.5,1.51
10.542700052261353,0.27,-0.17,1.26,1.29
10.552985906600952,0.64,-0.34,2.82,2.91
10.565932989120483,0.87,-0.36,1.57,1.83
10.573277950286865,0.07,0.03,-0.22,0.23
10.601195096969604,-1.03,0.64,-1.41,1.85
10.603741884231567,-1.19,0.57,-1.48,1.98
10.605353116989136,-0.36,0.24,-0.88,0.98
10.613014936447144,0.51,-0.3,-0.18,0.61
10.623332023620605,0.46,-0.26,-0.01,0.52
10.632906913757324,-0.06,0.1,-0.29,0.31
10.64596700668335,-0.66,0.41,-0.49,0.91
10.656394004821777,-0.79,0.47,-0.56,1.07
10.66331696510315,-0.21,0.12,-0.56,0.61
10.676291942596436,0.34,-0.06,-0.19,0.39
10.703630924224854,-1.14,1.14,0.11,1.61
10.705379009246826,-2.22,1.17,-0.32,2.52
10.706921815872192,-2.07,1.24,0.11,2.41
10.713534116744995,-1.49,1.12,0.42,1.91
10.723521947860718,-1.06,0.82,0.34,1.38
10.733799934387207,-0.95,0.79,0.06,1.23
10.743886947631836,-1.25,0.87,-0.04,1.52
10.753750085830688,-1.59,1.02,0.11,1.89
10.766623973846436,-1.63,1.06,0.17,1.95
10.776687860488892,-1.7,1.05,0.12,2.0
10.799236059188843,-1.85,1.23,-0.53,2.28
10.801027059555054,-2.04,1.29,-1.16,2.67
10.804021120071411,-2.49,2.05,-1.58,3.59
10.814095973968506,-3.33,3.2,-2.12,5.08
10.824422121047974,-4.07,3.88,-2.14,6.01
10.83417797088623,-4.26,3.89,-2.27,6.19
10.844708919525146,-5.32,3.58,-1.97,6.7
10.85820984840393,-6.71,4.47,-2.21,8.35
10.864886045455933,-8.14,6.05,-2.54,10.45
10.877929925918579,-10.33,9.28,-3.53,14.32
10.900399923324585,-14.03,13.62,-8.44,21.29
10.902065992355347,-16.8,15.17,-12.35,25.78
10.90554690361023,-17.54,14.76,-12.94,26.32
10.91544795036316,-13.68,13.45,-11.91,22.58
10.9251868724823,-5.52,10.66,-4.75,12.91
10.934797048568726,1.82,5.69,-0.33,5.98
10.945038080215454,8.38,-1.68,-0.96,8.6
10.955254793167114,7.07,0.57,-5.36,8.89
10.965273141860962,-2.5,-2.51,-7.03,7.87
10.978412866592407,-12.59,-16.03,-7.9,21.86
11.004173040390015,-13.93,-9.59,-3.95,17.36
11.00592303276062,-16.78,-4.82,-5.78,18.39
11.007488012313843,-22.05,-5.37,-6.4,23.57
11.015247106552124,-22.68,-6.42,-6.72,24.51
11.025142908096313,-19.48,-7.28,-6.35,21.74
11.035520792007446,-13.41,-8.37,-5.49,16.73
11.045501947402954,-9.72,-9.38,-2.74,13.78
11.055769920349121,-9.29,-9.33,-2.18,13.34
11.068910837173462,-9.46,-8.38,-2.2,12.82
11.077751874923706,-9.36,-7.04,-2.76,12.03
11.10080885887146,-9.37,-5.34,-3.23,11.25
11.103279829025269,-9.13,-3.69,-3.39,10.41
11.105612993240356,-8.43,-2.48,-3.3,9.38
11.116103887557983,-7.29,-1.98,-2.39,7.92
11.125964879989624,-6.28,-1.66,-0.65,6.52
11.13596796989441,-5.8,-0.73,0.77,5.89
11.148916006088257,-5.56,0.77,1.21,5.74
11.156049013137817,-5.09,2.39,1.13,5.73
11.169604063034058,-4.41,3.95,1.18,6.03
11.178223848342896,-3.31,5.22,1.12,6.28
11.204851865768433,-1.68,6.01,0.86,6.29
11.207405805587769,0.34,6.58,0.68,6.62
11.20897889137268,2.46,7.49,0.53,7.9
11.216517925262451,4.45,8.67,0.21,9.74
11.226632833480835,6.58,9.65,0.1,11.68
11.238116025924683,9.29,10.35,-0.1,13.9
11.247306108474731,12.22,10.83,0.18,16.32
11.260174989700317,14.56,11.35,1.22,18.5
11.267516851425171,16.07,11.32,2.8,19.85
11.277654886245728,16.66,10.72,4.88,20.4
11.307521104812622,16.8,9.88,5.89,20.36
11.309254884719849,17.55,8.79,6.51,20.67
11.310796976089478,18.9,6.98,7.48,21.49
11.316840887069702,20.18,8.46,7.45,23.11
11.32689881324768,20.95,29.94,6.64,37.14
11.338634967803955,24.18,21.45,3.49,32.51
11.347051858901978,20.18,-4.05,2.12,20.69
11.357080936431885,24.86,-12.35,2.23,27.84
11.37042498588562,27.69,-12.66,-8.73,31.67
11.377139806747437,12.21,-2.84,-6.28,14.02
11.406583070755005,-16.09,3.81,16.67,23.47
11.409057855606079,-18.02,7.54,18.95,27.21
11.410614013671875,-4.0,10.06,1.32,10.9
11.417720079421997,3.4,-3.71,-0.5,5.05
11.427482843399048,2.63,-0.41,0.87,2.8
11.437609910964966,-0.6,0.37,1.62,1.76
11.447721004486084,-1.24,0.85,-1.34,2.01
11.46031403541565,-0.5,0.52,-3.16,3.24
11.468100786209106,-0.06,0.27,-3.14,3.15
11.480715036392212,-0.1,-0.14,-0.79,0.8
11.503221988677979,0.19,-0.05,1.66,1.67
11.504986047744751,0.38,-0.17,2.09,2.13
11.50779414176941,0.27,-0.2,1.32,1.36
11.518024921417236,0.32,-0.12,0.07,0.34
11.528136968612671,0.23,0.13,-0.77,0.81
11.538118124008179,-1.45,1.2,-1.33,2.3
11.548625946044922,-2.16,0.94,-0.53,2.41
11.561344861984253,-1.0,0.6,0.77,1.39
11.568228960037231,-0.21,0.37,0.56,0.7
11.581387996673584,0.04,-0.07,-0.13,0.15
11.603976964950562,-0.35,0.45,-0.63,0.84
11.605707883834839,-0.94,0.57,-0.55,1.22
11.608361959457397,-1.06,0.62,-0.12,1.23
11.618587017059326,-0.83,0.57,0.14,1.01
11.628780126571655,-0.55,0.27,0.33,0.69
11.638624906539917,-0.38,0.12,0.17,0.43
11.64885687828064,-0.3,0.17,-0.19,0.39
11.662019968032837,-0.36,0.21,-0.35,0.54
11.668880939483643,-0.55,0.3,-0.33,0.7
11.682224035263062,-0.68,0.52,-0.53,1.0
11.702301979064941,-0.94,0.82,-0.56,1.36
11.704038858413696,-0.88,0.88,-0.38,1.3
11.709172010421753,-0.82,0.68,-0.48,1.16
11.71924090385437,-1.12,0.7,-0.26,1.34
11.729315996170044,-1.47,1.17,-0.58,1.96
11.739346981048584,-1.72,1.86,-1.2,2.8
11.752160787582397,-1.76,2.19,-1.9,3.39
11.759912014007568,-2.37,1.77,-1.85,3.48
11.773242950439453,-3.3,2.22,-1.58,4.27
11.779505014419556,-3.93,2.92,-1.08,5.01
11.81012511253357,-4.35,3.26,-0.99,5.52
11.812591791152954,-4.52,3.06,-0.84,5.52
11.813918828964233,-6.19,3.93,-1.61,7.5
11.819747924804688,-8.17,6.04,-1.96,10.34
11.829830884933472,-10.68,10.94,-3.16,15.61
11.840288877487183,-14.72,16.89,-8.32,23.89
11.85086703300476,-18.22,19.6,-12.55,29.55
11.863558053970337,-17.44,17.46,-12.38,27.6
11.871217012405396,-10.6,13.13,-8.38,18.84
11.883119821548462,-2.42,8.76,-0.43,9.09
11.904981851577759,4.04,-0.44,1.47,4.32
11.90752911567688,6.91,2.86,-2.51,7.88
11.910197973251343,-0.42,0.2,-6.93,6.94
11.92044711112976,-9.59,-9.72,-7.91,15.78
11.930425882339478,-14.2,-18.57,-4.98,23.9
11.94052791595459,-13.55,-10.3,-2.39,17.18
11.953608989715576,-17.25,-5.09,-4.69,18.58
11.960717916488647,-19.89,-3.82,-8.27,21.87
11.974356889724731,-18.0,-5.49,-9.27,20.97
11.981157064437866,-13.6,-7.63,-8.25,17.64
12.009835958480835,-8.74,-7.97,-4.96,12.82
12.012356042861938,-7.84,-7.88,-2.45,11.38
12.013889074325562,-9.03,-7.48,-1.82,11.86
12.020850896835327,-9.45,-6.84,-1.89,11.81
12.031203031539917,-9.42,-5.63,-2.04,11.16
12.040678977966309,-9.57,-4.13,-1.53,10.53
12.05068302154541,-9.45,-2.56,-0.93,9.83
12.06378698348999,-8.82,-1.04,-0.8,8.91
12.071175813674927,-7.59,0.06,-0.74,7.62
12.083986043930054,-6.09,0.67,-0.26,6.13
12.101499795913696,-4.78,1.2,0.72,4.98
12.103989839553833,-3.79,1.79,1.61,4.49
12.110995054244995,-3.51,2.49,1.64,4.6
12.120928049087524,-3.59,3.27,1.05,4.96
12.131137132644653,-3.17,4.03,0.8,5.18
12.14119291305542,-2.45,5.18,1.09,5.83
12.151725053787231,-1.41,6.46,1.17,6.71
12.16387391090393,0.49,6.94,1.62,7.14
12.174875020980835,2.53,7.35,2.07,8.04
12.181409120559692,3.6,8.69,1.66,9.55
12.201935052871704,4.31,10.69,0.75,11.55
12.204442024230957,5.84,12.42,0.55,13.73
12.211606979370117,9.24,13.39,0.86,16.29
12.221522092819214,13.9,12.64,1.96,18.88
12.231626987457275,18.15,11.02,2.74,21.4
12.24212384223938,20.8,9.13,2.54,22.85
12.255922079086304,21.52,6.13,2.5,22.51
12.261888980865479,21.25,3.38,2.2,21.62
12.275975942611694,20.94,1.7,3.05,21.22
12.282010793685913,21.02,0.62,4.73,21.55
12.30092191696167,20.75,0.63,5.64,21.51
12.303494930267334,21.55,4.97,5.65,22.82
12.312127828598022,25.88,31.6,-0.03,40.84
12.322223901748657,11.11,1.15,-6.67,13.0
12.332490921020508,18.79,-11.59,-3.99,22.43
12.34229302406311,17.27,-12.36,-12.17,24.47
12.35702109336853,8.45,-2.6,-6.19,10.79
12.362749814987183,-10.19,4.75,11.77,16.27
12.375229120254517,-17.03,5.05,25.68,31.22
12.385430097579956,-5.61,9.44,5.79,12.41
12.403422117233276,5.06,-2.63,-1.28,5.84
12.405125856399536,4.16,-1.87,0.21,4.56
12.412700891494751,-1.35,0.51,3.13,3.44
12.422797918319702,-1.55,0.76,0.94,1.96
12.43298888206482,-0.24,0.44,-4.06,4.09
12.442999124526978,-1.02,0.63,-5.94,6.05
12.453216791152954,-0.79,0.5,-4.47,4.56
12.466148138046265,-0.24,0.19,-1.05,1.09
12.475465059280396,-0.23,0.04,1.65,1.66
12.483495950698853,0.2,-0.06,2.87,2.87
12.504534006118774,0.46,-0.23,1.89,1.95
12.507150888442993,0.2,-0.14,0.4,0.46
12.513230085372925,-0.19,0.15,-0.55,0.6
12.52349305152893,-0.31,0.24,-1.01,1.08
12.533473014831543,-0.34,0.21,-0.78,0.87
12.546849012374878,-0.42,0.22,-0.52,0.7
12.553457021713257,-0.11,0.03,-0.29,0.31
12.56662392616272,0.33,-0.09,-0.3,0.45
12.57352089881897,0.2,-0.05,-0.55,0.58
12.587050914764404,-0.7,0.45,-0.52,0.98
12.612253904342651,-0.99,0.45,-0.46,1.18
12.61469578742981,-0.61,0.39,0.02,0.72
12.616642951965332,-0.23,0.17,0.34,0.44
12.627017974853516,-0.17,0.1,0.46,0.5
12.636992931365967,-0.37,0.28,0.37,0.59
12.64714503288269,-0.62,0.39,0.11,0.74
12.657270908355713,-0.81,0.62,-0.2,1.03
12.669947862625122,-0.96,0.78,-0.68,1.41
12.677640914916992,-1.06,0.81,-0.75,1.53
12.69051480293274,-1.19,0.87,-0.51,1.55
12.71415400505066,-1.27,0.79,-0.26,1.51
12.715950965881348,-1.15,0.58,0.02,1.28
12.717580080032349,-1.03,0.64,-0.08,1.21
12.727626085281372,-1.15,0.9,-0.43,1.52
12.73715090751648,-1.54,1.09,-0.6,1.97
12.747811079025269,-2.03,1.42,-0.59,2.54
12.757719993591309,-2.49,1.74,-0.77,3.13
12.767880916595459,-2.62,2.08,-0.59,3.39
12.780886888504028,-2.89,2.44,-0.61,3.83
12.791057825088501,-3.5,2.7,-0.45,4.44
12.813231945037842,-4.14,3.09,-0.9,5.24
12.81577181816101,-5.04,3.43,-1.37,6.24
12.817677021026611,-6.31,4.57,-2.56,8.2
12.828182935714722,-8.0,6.03,-3.22,10.52
12.838011980056763,-10.79,8.45,-3.26,14.08
12.848580121994019,-13.85,11.94,-5.47,19.08
12.860391855239868,-15.65,13.2,-8.56,22.19
12.869357824325562,-17.2,13.51,-10.66,24.33
12.881184816360474,-15.22,14.23,-10.43,23.3
12.888694047927856,-6.86,11.68,-5.74,14.71
12.919131994247437,0.7,6.27,1.23,6.42
12.921601057052612,2.14,-1.26,1.39,2.84
12.923123121261597,6.45,5.69,-1.52,8.73
12.928661108016968,0.29,8.0,-6.11,10.07
12.943809986114502,-7.29,-4.15,-7.88,11.5
12.948501825332642,-9.49,-17.04,-4.24,19.95
12.958501100540161,-8.97,-9.03,-1.43,12.8
12.973150968551636,-14.52,-4.26,-2.79,15.38
12.979317903518677,-20.7,-3.31,-5.18,21.59
12.991892099380493,-20.91,-2.46,-7.25,22.26
13.015514135360718,-19.41,-4.32,-7.25,21.16
13.017186880111694,-15.14,-6.92,-6.26,17.78
13.018902063369751,-10.29,-8.46,-1.91,13.45
13.029484033584595,-9.54,-8.75,0.07,12.94
13.039024114608765,-10.55,-8.02,0.01,13.25
13.049425840377808,-10.48,-7.21,-0.96,12.75
13.059353113174438,-9.74,-6.07,-1.77,11.61
13.069682836532593,-9.22,-4.58,-2.13,10.51
13.0828378200531,-8.54,-3.36,-2.33,9.46
13.09225583076477,-7.7,-2.46,-2.64,8.5
13.11484980583191,-6.88,-1.48,-2.89,7.6
13.117430925369263,-5.76,-0.67,-2.67,6.38
13.119462966918945,-4.52,-0.17,-1.83,4.87
13.12995982170105,-3.54,0.4,-0.62,3.61
13.139879941940308,-3.11,1.25,0.24,3.36
13.149785995483398,-3.19,2.36,0.16,3.97
13.162890911102295,-3.53,3.8,-0.39,5.2
13.169861078262329,-3.62,5.61,-0.76,6.71
13.182348012924194,-2.57,7.32,-0.82,7.8
13.193042993545532,-0.1,8.18,-0.6,8.2
13.215678930282593,2.39,8.83,-0.74,9.17
13.217481851577759,4.13,10.16,-1.55,11.07
13.221019983291626,6.31,11.44,-2.26,13.25
13.231006860733032,9.66,12.01,-1.28,15.46
13.243125915527344,14.46,12.14,0.14,18.88
13.251179933547974,19.8,11.92,1.5,23.15
13.263110876083374,22.93,12.52,2.78,26.27
13.271314859390259,24.13,8.68,2.84,25.8
13.283653974533081,26.06,5.51,4.81,27.06
13.291374921798706,27.53,3.1,6.09,28.36
13.318959951400757,32.22,10.18,4.68,34.11
13.320863008499146,36.38,22.68,1.64,42.9
13.322407960891724,26.9,2.39,2.37,27.1
13.331629037857056,24.68,-14.18,7.95,29.55
13.341823816299438,23.89,-9.19,-5.64,26.21
13.351106882095337,8.31,-5.55,-9.92,14.08
13.360882997512817,-15.6,2.55,18.58,24.39
13.371140956878662,-17.89,3.61,24.26,30.35
13.38399600982666,-3.46,12.86,5.6,14.44
13.391016960144043,-0.98,1.13,3.23,3.55
13.420823812484741,0.25,-0.01,0.82,0.85
13.42242980003357,-0.29,-0.43,-1.43,1.52
13.423967123031616,-0.53,0.85,-2.05,2.28
13.431483030319214,-0.69,0.83,-3.22,3.39
13.44127106666565,-0.9,0.13,-3.35,3.47
13.451564073562622,-0.1,0.33,-1.57,1.6
13.461555004119873,0.27,-0.29,1.21,1.27
13.475067853927612,0.77,-0.39,2.55,2.69
13.48208498954773,0.91,-0.25,1.38,1.67
13.495352983474731,-0.06,-0.05,0.16,0.17
13.51762080192566,-0.53,0.31,-0.31,0.68
13.519382953643799,-0.42,0.35,-0.88,1.03
13.521698951721191,-0.35,0.22,-1.12,1.19
13.53203296661377,-0.25,0.14,-0.9,0.94
13.541971921920776,-0.39,0.13,-0.03,0.41
13.55213189125061,-0.09,-0.06,0.22,0.24
13.562466859817505,0.25,-0.04,-0.29,0.38
13.575289964675903,0.24,-0.18,-0.39,0.49
13.582237958908081,0.14,-0.07,-0.36,0.39
13.595371961593628,-0.68,0.61,-0.17,0.92
13.618882894515991,-1.19,0.58,-0.21,1.34
13.620662927627563,-0.99,0.58,0.37,1.2
13.62224793434143,-0.64,0.52,0.6,1.01
13.632728815078735,-0.47,0.46,0.28,0.71
13.642549991607666,-0.64,0.65,-0.18,0.92
13.652707815170288,-0.87,0.66,-0.43,1.17
13.662532091140747,-0.98,0.71,-0.54,1.32
13.675715923309326,-0.99,0.72,-0.36,1.27
13.685067892074585,-0.93,0.55,-0.03,1.08
13.69294285774231,-0.88,0.56,0.09,1.04
13.719949960708618,-0.79,0.42,0.07,0.89
13.721722841262817,-0.8,0.66,-0.04,1.03
13.723251104354858,-0.99,0.86,-0.53,1.41
13.733381032943726,-1.36,1.13,-1.19,2.13
13.743121862411499,-2.05,1.99,-1.87,3.41
13.753044843673706,-2.31,3.21,-2.43,4.64
13.763375043869019,-3.37,3.43,-2.26,5.31
13.773369073867798,-4.79,4.07,-1.55,6.47
13.785738945007324,-5.93,5.06,-1.6,7.95
13.793914079666138,-6.58,5.19,-1.75,8.56
13.82313084602356,-8.35,6.6,-2.44,10.91
13.824965000152588,-10.86,9.04,-2.87,14.41
13.826478004455566,-13.54,12.88,-4.64,19.25
13.83440089225769,-17.25,15.42,-9.25,24.91
13.84636902809143,-20.26,16.55,-12.11,28.82
13.854350805282593,-20.85,17.98,-14.75,31.23
13.865611791610718,-14.17,16.55,-12.69,25.21
13.873855829238892,-4.11,9.93,-4.89,11.8
13.884019136428833,3.05,-1.39,-1.02,3.5
13.897733926773071,6.51,1.68,-0.9,6.78
13.920313119888306,-0.47,-0.49,-6.1,6.13
13.92207407951355,-9.54,-18.43,-5.37,21.43
13.924077987670898,-11.91,-15.99,-3.94,20.32
13.93406891822815,-14.24,-7.95,-6.76,17.65
13.944463968276978,-19.68,-6.02,-5.38,21.27
13.954185962677002,-21.42,-7.17,-5.27,23.19
13.964416980743408,-18.75,-7.27,-5.72,20.9
13.977402925491333,-13.52,-7.8,-6.52,16.91
13.984445810317993,-9.56,-8.74,-4.32,13.65
13.997501134872437,-9.1,-8.76,-3.11,13.0
14.02602505683899,-9.46,-8.14,-2.05,12.64
14.027806997299194,-9.1,-7.38,-1.34,11.79
14.029402017593384,-8.89,-6.04,-1.32,10.82
14.03465485572815,-8.76,-4.5,-1.6,9.97
14.044770956039429,-8.32,-2.8,-1.83,8.96
14.055126905441284,-7.58,-1.48,-2.04,7.98
14.064847946166992,-6.32,-1.16,-1.5,6.59
14.075230836868286,-5.18,-0.98,-0.15,5.27
14.085272073745728,-4.67,-0.11,1.16,4.81
14.098453998565674,-4.5,1.02,1.7,4.91
14.123822927474976,-4.27,2.02,1.56,4.97
14.12564992904663,-3.67,3.2,1.13,4.99
14.127227067947388,-2.96,4.67,0.35,5.54
14.135217905044556,-1.92,5.97,-0.26,6.27
14.145519018173218,0.25,7.09,-0.5,7.11
14.15533995628357,3.24,8.06,-0.68,8.71
14.165682077407837,5.82,8.68,-1.18,10.51
14.175496816635132,7.96,9.08,-1.86,12.21
14.188720941543579,10.04,9.77,-1.56,14.09
14.19703197479248,12.46,11.3,-0.47,16.82
14.225623846054077,15.41,12.67,1.0,19.97
14.228193044662476,18.46,12.84,2.13,22.58
14.229801893234253,21.89,11.52,2.77,24.89
14.236563920974731,24.19,9.87,3.93,26.42
14.246816873550415,24.41,5.69,4.81,25.52
14.258870840072632,25.4,2.03,6.56,26.31
14.266846895217896,25.66,-0.26,8.0,26.87
14.278581857681274,25.15,-0.14,8.52,26.55
14.287113904953003,29.41,21.66,7.26,37.23
14.299350023269653,14.76,14.3,-4.32,21.0
14.32570481300354,13.73,-5.88,0.74,14.95
14.328216791152954,10.76,-9.33,-8.64,16.65
14.329803943634033,1.56,-2.68,-10.7,11.14
14.336375951766968,-4.95,3.58,5.57,8.26
14.346524953842163,-6.66,1.74,23.55,24.53
14.356920957565308,-4.96,4.89,14.57,16.14
14.366742849349976,-1.6,2.56,3.46,4.59
14.377282857894897,-1.01,0.27,-0.82,1.32
14.38992691040039,-0.03,0.03,-0.49,0.49
14.397431135177612,0.74,0.33,1.29,1.52
14.426707029342651,0.18,0.06,-0.73,0.75
14.429202795028687,-0.7,0.51,-3.48,3.58
14.430794954299927,-0.96,0.71,-4.45,4.6
14.43694281578064,-0.55,0.19,-2.94,2.99
14.447202920913696,0.11,-0.06,-0.18,0.21
14.457381963729858,0.19,-0.05,2.1,2.1
14.467697858810425,0.32,-0.21,2.44,2.46
14.480209112167358,0.55,-0.26,1.29,1.42
14.490873098373413,0.11,0.05,0.17,0.2
14.497529983520508,-0.53,0.4,-0.88,1.1
14.523124933242798,-0.99,0.63,-1.48,1.88
14.52545690536499,-0.99,0.53,-1.77,2.09
14.527349948883057,-0.3,0.08,-1.58,1.61
14.537662982940674,-0.06,0.18,-0.2,0.27
14.547836065292358,-1.2,1.11,-0.1,1.63
14.55784296989441,-1.67,0.72,0.19,1.82
14.570409059524536,-1.29,0.63,0.82,1.65
14.578216791152954,-0.76,0.65,0.73,1.23
14.591279983520508,-0.54,0.57,0.37,0.86
14.598217964172363,-0.66,0.36,-0.05,0.75
14.629508972167969,-0.88,0.51,-0.55,1.15
14.632033109664917,-1.04,0.71,-0.85,1.51
14.633538007736206,-1.24,0.76,-0.8,1.65
14.637998819351196,-1.27,0.68,-0.71,1.6
14.648363828659058,-1.1,0.48,-0.39,1.26
14.65827488899231,-0.9,0.45,-0.23,1.03
14.668766021728516,-0.91,0.66,-0.28,1.15
14.681411027908325,-1.12,0.61,-0.43,1.34
14.688761949539185,-1.52,1.21,-0.78,2.09
14.70116901397705,-2.29,2.3,-1.29,3.49
14.724950075149536,-3.01,3.27,-1.75,4.77
14.727442026138306,-3.51,3.56,-1.77,5.3
14.729121923446655,-4.2,3.76,-1.6,5.85
14.745517015457153,-5.12,4.34,-1.9,6.97
14.748711824417114,-6.12,5.0,-2.52,8.29
14.758955001831055,-7.29,5.79,-3.31,9.88
14.772308111190796,-9.03,7.71,-4.63,12.74
14.779346942901611,-12.56,10.34,-5.95,17.32
14.793256998062134,-16.44,14.34,-7.54,23.08
14.800143003463745,-19.92,18.26,-11.71,29.45
14.829353094100952,-21.08,20.88,-13.89,32.76
14.831857919692993,-15.51,16.5,-12.0,25.62
14.833478927612305,-4.97,7.11,-5.72,10.39
14.83934998512268,5.06,-2.45,0.43,5.63
14.849318981170654,9.17,3.54,0.0,9.82
14.859416961669922,4.34,4.32,-5.72,8.37
14.86948299407959,-2.04,-14.89,-5.3,15.93
14.879637002944946,-7.25,-23.19,-2.5,24.42
14.893013000488281,-8.94,-9.83,-5.89,14.53
14.89997410774231,-15.86,-3.7,-9.8,19.0
14.928806066513062,-20.6,-4.72,-10.43,23.56
14.931273937225342,-21.01,-6.47,-10.25,24.25
14.932873010635376,-19.76,-8.07,-8.52,22.98
14.939964056015015,-13.55,-8.7,-6.7,17.44
14.95006799697876,-8.43,-9.21,-2.99,12.83
14.9599130153656,-9.12,-9.3,-1.76,13.14
14.970426797866821,-11.1,-8.3,-1.08,13.9
14.982935905456543,-10.67,-7.27,-1.03,12.95
14.992583990097046,-9.43,-6.5,-1.45,11.54
15.002460956573486,-9.26,-4.67,-2.54,10.67
15.025960922241211,-9.29,-2.38,-3.62,10.25
15.028473138809204,-8.53,-0.44,-3.82,9.35
15.030268907546997,-6.76,0.55,-2.55,7.24
15.040568113327026,-4.87,0.93,-0.54,4.98
15.05052399635315,-3.74,1.48,1.5,4.29
15.060612916946411,-3.85,2.53,2.51,5.24
15.074566125869751,-4.6,3.98,2.05,6.41
15.080689907073975,-4.16,5.51,0.78,6.94
15.091125011444092,-2.27,6.88,-0.13,7.24
15.103882074356079,0.28,7.97,-0.67,8.0
15.126652956008911,3.06,9.06,-1.12,9.62
15.12926197052002,8.03,14.48,-2.14,16.69
15.130980968475342,10.42,11.63,-4.45,16.23
15.141003847122192,12.39,6.92,1.71,14.29
15.151152849197388,13.69,8.65,4.71,16.86
15.161454916000366,15.92,13.29,5.9,21.56
15.175004005432129,17.86,14.25,5.96,23.61
15.182354927062988,19.75,13.39,5.37,24.45
15.194319009780884,22.68,15.4,4.74,27.82
15.20238995552063,25.02,16.35,5.74,30.43
15.233114957809448,28.74,18.16,7.72,34.86
15.235672950744629,33.57,14.67,4.55,36.91
15.237329006195068,28.99,-10.34,8.98,32.06
15.241910934448242,32.47,-13.71,9.76,36.57
15.251598119735718,19.81,-5.75,-6.51,21.63
15.26164984703064,-6.08,0.3,2.97,6.77
15.27180790901184,-25.34,0.08,28.2,37.91
15.284485101699829,-9.95,14.22,5.95,18.34
15.29173493385315,-3.07,9.25,-2.05,9.95
15.305346012115479,0.51,-2.83,0.97,3.03
15.32752799987793,1.78,0.04,0.08,1.78
15.330066919326782,1.17,-0.26,0.58,1.33
15.33203911781311,-0.49,0.33,-1.3,1.42
15.34203290939331,-0.44,0.05,-1.32,1.39
15.352252960205078,0.08,0.3,-0.64,0.71
15.362396001815796,0.0,-0.21,0.05,0.21
15.372630834579468,0.13,-0.02,0.63,0.64
15.38565993309021,0.17,-0.01,0.79,0.8
15.394458055496216,0.03,-0.06,0.31,0.31
15.404843091964722,-0.1,0.15,-0.37,0.41
15.428407907485962,-0.14,0.05,-0.6,0.61
15.43005108833313,-0.13,0.01,-0.45,0.46
15.432470083236694,-0.16,0.01,0.08,0.17
15.442755937576294,-0.06,0.05,0.04,0.08
15.45277190208435,-0.04,0.14,-0.18,0.23
15.462826013565063,-0.36,0.41,-0.57,0.78
15.472831010818481,-0.5,0.31,-0.78,0.97
15.485801935195923,-0.1,0.2,-0.87,0.89
15.492887020111084,-1.43,1.86,-0.03,2.34
15.506755113601685,-2.52,1.57,-0.49,3.0
15.526244878768921,-1.93,0.79,0.52,2.14
15.528014898300171,-0.9,0.76,0.68,1.36
15.533261060714722,-0.13,0.3,0.29,0.43
15.543370962142944,-0.28,0.45,-0.05,0.53
15.553096055984497,-0.8,0.74,-0.13,1.09
15.563533067703247,-1.15,1.14,-0.12,1.62
15.576082944869995,-0.95,1.21,-0.18,1.54
15.583873987197876,-1.0,0.85,-0.48,1.39
15.596918821334839,-1.17,0.82,-0.29,1.45
15.604026079177856,-1.16,1.01,-0.61,1.65
15.634936094284058,-1.17,1.45,-1.0,2.11
15.63750696182251,-1.12,1.75,-2.02,2.89
15.639035940170288,-1.86,2.45,-2.39,3.89
15.643837928771973,-2.8,3.32,-3.4,5.51
15.660300016403198,-3.38,3.9,-3.62,6.3
15.663870096206665,-3.98,3.4,-3.83,6.48
15.674063920974731,-4.7,3.7,-3.34,6.85
15.686707019805908,-6.19,4.7,-4.18,8.82
15.694463968276978,-7.67,6.53,-4.64,11.09
15.707961797714233,-10.23,9.32,-5.01,14.71
15.73058009147644,-14.21,13.02,-7.39,20.64
15.73239779472351,-18.17,14.96,-10.76,25.87
15.734870910644531,-20.99,13.57,-11.89,27.67
15.745155096054077,-21.68,13.58,-10.76,27.75
15.756066083908081,-14.31,16.34,-9.24,23.6
15.76448392868042,-0.94,8.73,-6.32,10.81
15.77451491355896,8.45,-4.7,1.36,9.76
15.785074949264526,8.46,3.55,-6.01,10.96
15.797763109207153,4.99,-5.66,-6.36,9.86
15.8051598072052,-4.53,-23.98,-4.09,24.74
15.835106134414673,-9.54,-13.34,-1.76,16.49
15.837602853775024,-13.5,-3.26,-7.44,15.75
15.839152097702026,-19.85,-3.6,-9.27,22.2
15.844844102859497,-21.2,-7.04,-11.19,24.98
15.860213041305542,-18.52,-8.45,-8.78,22.16
15.864988088607788,-12.4,-7.39,-7.36,16.2
15.87515902519226,-8.24,-8.04,-4.36,12.31
15.888548135757446,-7.95,-9.16,-3.36,12.58
15.895632028579712,-8.59,-8.45,-2.16,12.24
15.909026861190796,-9.12,-7.1,-2.01,11.73
15.934656858444214,-9.6,-6.26,-2.48,11.72
15.936330080032349,-10.08,-5.3,-2.53,11.66
15.937945127487183,-9.86,-4.27,-1.72,10.88
15.945451021194458,-9.08,-3.13,-0.94,9.65
15.95553708076477,-8.37,-2.21,-0.57,8.67
15.965673923492432,-7.78,-1.74,-0.2,7.97
15.975796937942505,-7.39,-0.9,0.71,7.47
15.986048936843872,-7.01,0.69,1.62,7.22
15.998894929885864,-6.56,2.36,2.46,7.39
16.00896692276001,-5.78,4.02,2.43,7.44
16.034121990203857,-4.43,5.61,1.75,7.35
16.03660798072815,-2.92,7.13,1.16,7.79
16.038130044937134,-0.89,8.62,1.01,8.72
16.042912006378174,1.99,9.69,1.62,10.02
16.05348300933838,4.65,10.59,1.56,11.67
16.063169956207275,6.96,11.69,0.65,13.62
16.07340407371521,9.55,13.27,0.8,16.36
16.083412885665894,12.66,15.17,2.59,19.92
16.093812942504883,16.18,16.75,5.28,23.87
16.108236074447632,19.51,17.36,6.96,27.02
16.125845909118652,21.58,14.21,7.1,26.79
16.128366947174072,23.52,9.23,7.39,26.32
16.133629083633423,24.76,5.55,8.06,26.62
16.14371609687805,24.97,2.17,9.02,26.63
16.15366005897522,26.61,10.94,9.17,30.19
16.16368079185486,24.34,28.47,3.88,37.65
16.174152135849,12.65,-3.18,2.37,13.25
16.18694496154785,18.73,-7.88,-0.14,20.32
16.193893909454346,13.77,-8.31,-13.57,21.04
16.20759606361389,5.12,-1.74,-10.87,12.14
16.2277410030365,-5.74,2.52,7.48,9.75
16.229506969451904,-8.88,2.47,19.41,21.48
16.234092950820923,-4.73,6.09,12.01,14.27
16.244090795516968,-1.16,1.01,2.19,2.67
16.25430989265442,0.19,-0.26,0.96,1.01
16.26422691345215,1.23,-0.04,1.77,2.15
16.274656057357788,1.08,-0.34,2.28,2.54
16.287205934524536,-0.09,0.26,-0.55,0.61
16.294523000717163,-0.86,0.61,-3.96,4.09
16.307837963104248,-0.85,0.58,-4.97,5.07
16.32442307472229,-0.22,0.08,-3.12,3.12
16.326186895370483,0.57,-0.38,0.14,0.69
16.33490300178528,0.67,-0.47,3.04,3.14
16.344815969467163,0.74,-0.48,3.31,3.42
16.354349851608276,0.72,-0.3,1.44,1.63
16.364421129226685,-0.06,0.15,-1.07,1.08
16.37500500679016,-0.93,0.52,-2.26,2.49
16.388374090194702,-1.34,0.75,-2.37,2.82
16.395555019378662,-1.02,0.46,-1.7,2.03
16.408138036727905,-0.12,-0.11,-0.78,0.79
16.426826000213623,0.76,-0.44,0.08,0.88
16.428643941879272,-0.23,0.58,0.24,0.66
16.435067892074585,-1.31,0.58,-0.25,1.45
16.445488929748535,-1.35,0.63,0.2,1.5
16.455339908599854,-1.01,0.77,0.66,1.43
16.465576887130737,-0.67,0.46,0.51,0.95
16.47562599182129,-0.5,0.45,0.14,0.68
16.48868203163147,-0.64,0.64,-0.38,0.98
16.496042013168335,-0.89,0.62,-0.75,1.31
16.509021043777466,-1.05,0.47,-0.52,1.26
16.528197050094604,-0.94,0.36,-0.22,1.03
16.529855012893677,-0.8,0.38,-0.03,0.88
16.535756826400757,-0.95,0.66,0.01,1.15
16.54608392715454,-1.32,1.16,-0.51,1.82
16.556160926818848,-1.78,1.51,-1.12,2.58
16.56592106819153,-2.25,1.66,-1.44,3.14
16.57669997215271,-2.81,2.44,-1.66,4.07
16.589390993118286,-3.52,3.11,-1.31,4.87
16.60839009284973,-5.06,5.31,-1.34,7.45
16.63335680961609,-5.92,6.14,-1.81,8.71
16.63513684272766,-7.3,5.49,-1.79,9.3
16.63671612739563,-8.85,6.54,-1.77,11.14
16.64433193206787,-11.77,9.64,-2.5,15.41
16.654485940933228,-14.58,12.99,-5.05,20.16
16.66746687889099,-16.63,15.39,-7.15,23.75
16.675607919692993,-16.75,18.0,-9.86,26.49
16.685796976089478,-11.69,18.5,-10.54,24.28
16.697999954223633,-3.51,13.42,-9.34,16.72
16.70475196838379,2.19,-1.59,-8.71,9.12
16.73250699043274,4.18,-5.39,-5.65,8.85
16.735082864761353,-2.41,-11.73,-8.54,14.7
16.7367160320282,-10.59,-13.8,-4.41,17.94
16.745137929916382,-17.03,-9.61,-5.26,20.24
16.754710912704468,-18.67,-7.06,-3.78,20.31
16.765079021453857,-18.36,-7.23,-5.15,20.39
16.775537967681885,-16.81,-8.77,-5.8,19.82
16.788501024246216,-13.95,-8.58,-6.62,17.66
16.795094966888428,-11.13,-8.43,-5.86,15.14
16.80820894241333,-10.33,-8.89,-4.45,14.33
16.83225703239441,-9.76,-8.58,-3.33,13.41
16.834058046340942,-8.61,-7.55,-2.6,11.74
16.835628986358643,-7.86,-6.27,-2.6,10.38
16.845517873764038,-7.96,-4.42,-3.23,9.66
16.85560894012451,-7.86,-2.86,-3.82,9.19
16.865680932998657,-7.09,-2.06,-3.55,8.19
16.87549591064453,-6.14,-1.41,-2.81,6.89
16.88912081718445,-5.31,-0.62,-2.18,5.77
16.895795106887817,-4.38,0.18,-1.69,4.69
16.909036874771118,-3.36,1.11,-1.25,3.75
16.932204961776733,-2.55,2.2,-1.02,3.51
16.933985948562622,-2.66,3.29,-1.03,4.35
16.935890913009644,-3.23,4.19,-1.43,5.48
16.946015119552612,-2.97,4.84,-1.8,5.95
16.9563090801239,-1.79,5.26,-2.08,5.93
16.966317892074585,0.09,5.78,-2.56,6.32
16.976359128952026,2.64,6.61,-2.79,7.64
16.986048936843872,4.81,7.62,-3.28,9.58
16.99694299697876,6.24,8.3,-4.01,11.13
17.009979009628296,7.84,8.73,-4.18,12.45
17.034117937088013,10.55,8.9,-3.2,14.16
17.036630868911743,14.17,8.45,-1.48,16.56
17.03824782371521,17.45,8.0,0.66,19.2
17.046919107437134,19.15,7.7,2.09,20.74
17.05667805671692,19.08,7.07,3.08,20.57
17.06669592857361,18.6,6.6,4.12,20.16
17.076982021331787,19.44,5.59,6.1,21.12
17.0905020236969,20.73,4.82,8.19,22.8
17.09743094444275,21.17,4.57,8.77,23.36
17.110692024230957,27.0,25.09,7.85,37.68
17.133805990219116,23.7,31.8,-2.35,39.72
17.135608911514282,15.66,-8.18,4.54,18.24
17.137290000915527,23.26,-13.98,1.93,27.2
17.1471209526062,18.25,-11.61,-7.52,22.89
17.157482862472534,2.63,1.95,5.52,6.41
17.167219877243042,-15.09,2.53,31.13,34.68
17.177563905715942,-10.71,6.2,10.83,16.44
17.18787980079651,-5.57,8.57,0.47,10.23
17.200452089309692,-2.73,0.34,-1.16,2.98
17.2099449634552,1.1,-0.13,-0.7,1.31
17.236722946166992,1.43,0.57,-1.06,1.86
17.238492965698242,0.06,-0.22,-1.24,1.26
17.24002695083618,-0.35,0.37,-2.23,2.28
17.24770712852478,-0.09,-0.06,-1.21,1.21
17.25776505470276,0.71,-0.51,1.17,1.46
17.267956972122192,1.27,-0.48,2.22,2.6
17.277940034866333,0.82,-0.45,1.68,1.92
17.288015127182007,0.28,-0.11,0.48,0.56
17.300704956054688,-0.35,0.39,-0.56,0.76
17.308121919631958,-0.87,0.61,-1.37,1.73
17.336116075515747,-0.84,0.45,-1.29,1.6
17.337881803512573,-0.13,-0.06,-0.76,0.77
17.339412927627563,-0.04,0.15,-0.2,0.25
17.348407983779907,-0.6,0.32,-0.63,0.92
17.35879111289978,-0.9,0.45,-0.48,1.11
17.36852478981018,-0.86,0.58,-0.3,1.07
17.378297090530396,-0.59,0.38,-0.31,0.76
17.388811826705933,-0.28,0.19,-0.26,0.42
17.401376962661743,0.15,-0.1,-0.24,0.3
17.40896201133728,0.01,0.15,-0.45,0.47
17.438767910003662,-0.35,0.24,-0.47,0.63
17.44054102897644,-0.66,0.36,-0.41,0.85
17.442044973373413,-0.73,0.48,-0.37,0.94
17.448689937591553,-0.8,0.66,-0.59,1.19
17.458849906921387,-0.95,0.78,-0.79,1.46
17.469051122665405,-0.99,0.74,-0.81,1.47
17.47908592224121,-0.92,0.57,-0.85,1.37
17.488942861557007,-0.89,0.45,-0.62,1.17
17.501929998397827,-1.02,0.75,-0.7,1.44
17.51138997077942,-1.54,1.61,-1.45,2.65
17.5399489402771,-2.35,2.57,-2.23,4.13
17.542513132095337,-3.17,3.2,-2.92,5.36
17.544127941131592,-3.51,3.41,-3.03,5.75
17.54924511909485,-3.69,3.34,-2.73,5.67
17.559706926345825,-4.14,3.55,-2.55,6.02
17.56980586051941,-5.11,4.8,-2.16,7.33
17.57963991165161,-7.17,7.0,-1.81,10.18
17.592982053756714,-10.81,11.17,-2.03,15.67
17.602633953094482,-14.46,14.51,-5.67,21.25
17.61105513572693,-16.59,14.27,-8.81,23.58
17.64223599433899,-17.14,13.46,-9.86,23.92
17.64478898048401,-14.77,14.43,-9.65,22.79
17.646373987197876,-9.95,16.0,-6.6,19.96
17.649807929992676,-2.35,6.5,-5.01,8.53
17.660189867019653,4.82,-3.83,-4.2,7.45
17.669912099838257,2.18,-10.87,-6.39,12.79
17.68002700805664,-3.81,-16.44,-6.35,18.03
17.693957090377808,-12.6,-9.34,-4.61,16.34
17.700671911239624,-17.77,-6.43,-5.4,19.65
17.713256120681763,-20.06,-5.52,-5.83,21.6
17.736951112747192,-20.2,-7.77,-5.57,22.34
17.738708972930908,-19.3,-9.69,-3.85,21.93
17.74028992652893,-15.42,-9.15,-3.17,18.2
17.750432014465332,-11.0,-8.89,-1.83,14.26
17.760576963424683,-9.89,-9.27,-1.86,13.68
17.770730018615723,-9.18,-8.12,-2.55,12.51
17.78065800666809,-8.54,-6.27,-3.21,11.07
17.793678045272827,-8.28,-4.95,-3.74,10.34
17.803306818008423,-7.96,-3.84,-3.9,9.66
17.810921907424927,-7.14,-3.24,-3.48,8.57
17.84087896347046,-6.21,-2.96,-2.7,7.39
17.8433678150177,-5.74,-2.53,-1.91,6.55
17.84495711326599,-5.66,-1.86,-1.12,6.06
17.85098910331726,-5.84,-0.72,-0.46,5.9
17.860986948013306,-6.07,0.74,-0.22,6.11
17.8712899684906,-6.08,2.0,-0.05,6.4
17.881356954574585,-5.22,3.19,0.08,6.11
17.894213914871216,-3.23,4.6,0.11,5.62
17.901453018188477,-1.33,5.75,-0.51,5.92
17.91441297531128,0.1,6.3,-1.51,6.47
17.93892502784729,1.83,6.7,-1.97,7.21
17.94072985649109,3.81,7.48,-1.99,8.62
17.942314863204956,5.36,8.51,-1.77,10.21
17.95175004005432,7.03,9.74,-1.42,12.09
17.96187996864319,9.92,10.52,-0.67,14.47
17.974251985549927,13.45,10.72,0.86,17.22
17.982609033584595,16.97,10.79,1.93,20.2
17.992850065231323,19.67,11.09,2.76,22.74
18.006382942199707,20.71,8.71,2.15,22.56
18.01329207420349,22.53,5.13,2.38,23.22
18.04343008995056,24.14,2.89,3.98,24.63
18.045959949493408,25.11,-0.49,6.54,25.95
18.047558069229126,25.64,-2.44,8.76,27.2
18.052942037582397,31.31,16.08,7.87,36.06
18.064105987548828,28.41,24.73,-1.72,37.7
18.07227110862732,15.4,-8.68,3.16,17.95
18.082494974136353,21.69,-7.51,0.6,22.96
18.09298586845398,13.09,-9.7,-11.06,19.69
18.10616397857666,2.81,-3.03,-11.08,11.82
18.11311101913452,-10.93,0.58,18.39,21.4
18.14561891555786,-12.78,2.01,30.57,33.19
18.14809489250183,-4.81,10.74,11.66,16.56
18.149587869644165,-3.72,6.85,-1.53,7.94
18.152602910995483,-4.77,0.07,-3.27,5.78
18.163007020950317,-0.26,0.52,-0.82,1.0
18.173147916793823,2.72,-0.35,0.82,2.86
18.183048963546753,0.91,-0.33,-1.32,1.63
18.19629406929016,-1.23,0.42,-3.52,3.75
18.203112840652466,-0.83,0.37,-2.67,2.82
18.215961933135986,0.53,-0.36,0.25,0.68
18.244322061538696,1.11,-0.34,2.09,2.39
18.24687099456787,0.41,-0.1,1.6,1.65
18.24847912788391,-0.11,-0.04,0.22,0.24
18.25334095954895,-0.31,0.28,-0.53,0.67
18.263616800308228,-0.44,0.27,-1.13,1.24
18.273525953292847,-0.58,0.35,-1.36,1.51
18.283353090286255,-0.6,0.38,-1.28,1.46
18.297040939331055,-0.46,0.21,-0.57,0.76
18.30408787727356,-0.15,0.08,-0.17,0.24
18.31708788871765,-0.03,0.11,-0.08,0.13
18.340682983398438,-0.05,0.1,-0.19,0.22
18.343183994293213,0.2,-0.14,-0.29,0.37
18.344773054122925,-0.25,0.46,0.2,0.56
18.353765964508057,-1.0,0.76,-0.35,1.3
18.363943815231323,-1.07,0.36,0.12,1.13
18.374336004257202,-0.62,0.43,0.28,0.8
18.38406991958618,-0.37,0.5,0.15,0.63
18.394689798355103,-0.47,0.44,0.0,0.64
18.40804886817932,-0.78,0.64,-0.3,1.05
18.414777994155884,-0.96,0.67,-0.63,1.32
18.44626784324646,-1.0,0.58,-0.57,1.28
18.448812007904053,-0.81,0.25,-0.29,0.89
18.450418949127197,-0.43,0.11,-0.2,0.48
18.454571962356567,-0.41,0.3,-0.26,0.57
18.464581966400146,-0.96,1.1,-0.58,1.57
18.47485899925232,-2.09,2.29,-1.33,3.37
18.484710931777954,-3.25,3.92,-2.1,5.5
18.49770712852478,-3.74,4.37,-2.26,6.17
18.505236864089966,-3.92,3.0,-0.86,5.01
18.517657995224,-4.3,2.5,0.66,5.01
18.54153084754944,-5.31,3.57,0.85,6.45
18.544081926345825,-7.08,6.09,0.7,9.36
18.545575857162476,-9.83,10.3,-1.44,14.31
18.562423944473267,-12.37,13.45,-5.71,19.14
18.566035985946655,-14.18,11.98,-7.11,19.87
18.575803995132446,-13.87,11.39,-7.29,19.37
18.588228940963745,-11.13,12.15,-8.78,18.67
18.596184015274048,-5.35,12.26,-7.95,15.56
18.60903286933899,-0.63,1.63,-6.76,6.98
18.61785912513733,1.34,-10.08,-6.2,11.9
18.642578840255737,-3.45,-12.92,-5.15,14.33
18.645092010498047,-13.64,-11.65,-7.7,19.52
18.64667797088623,-16.41,-9.76,-6.82,20.27
18.66080403327942,-15.93,-8.15,-4.72,18.5
18.66567587852478,-14.91,-8.57,-6.79,18.48
18.675880908966064,-11.53,-9.87,-6.15,16.37
18.685642957687378,-9.49,-8.99,-4.6,13.85
18.69918990135193,-9.97,-7.05,-4.46,12.99
18.705996990203857,-9.36,-6.46,-4.92,12.39
18.718851804733276,-7.43,-6.08,-4.97,10.81
18.743144989013672,-6.38,-4.81,-4.89,9.36
18.745630979537964,-5.82,-3.58,-4.57,8.22
18.747223138809204,-5.28,-2.73,-4.11,7.22
18.75615692138672,-5.21,-1.7,-3.75,6.64
18.766233921051025,-5.23,-0.29,-3.43,6.26
18.776577949523926,-4.68,0.89,-2.98,5.61
18.78677797317505,-3.76,1.62,-2.64,4.87
18.799565076828003,-2.8,1.89,-2.12,3.98
18.80935502052307,-2.3,2.29,-1.38,3.52
18.817163944244385,-2.23,2.92,-0.46,3.7
18.847699880599976,-2.09,3.19,0.47,3.84
18.850178956985474,-1.82,3.12,0.92,3.72
18.851758003234863,-1.68,3.08,0.66,3.56
18.85677981376648,-1.53,2.84,0.53,3.26
18.866714000701904,-1.02,2.35,0.76,2.67
18.877103090286255,-0.41,1.96,0.87,2.18
18.886732816696167,0.33,1.93,0.74,2.09
18.897580862045288,1.12,2.33,0.4,2.61
18.910709142684937,1.51,3.05,-0.35,3.42
18.91770911216736,1.68,3.61,-0.97,4.09
18.949217081069946,2.43,3.99,-0.63,4.71
18.951722860336304,4.32,4.27,0.39,6.08
18.95327091217041,6.63,4.2,1.45,7.98
18.95720601081848,7.64,4.59,2.03,9.14
18.967336893081665,7.97,5.61,1.47,9.85
18.977434873580933,9.32,6.34,1.05,11.32
18.987626791000366,11.34,6.5,0.97,13.1
19.001049995422363,13.51,5.78,1.24,14.74
19.00756597518921,15.69,4.82,2.49,16.6
19.020367860794067,17.27,3.96,4.35,18.24
19.04552698135376,18.14,3.49,6.13,19.46
19.047992944717407,19.1,3.49,7.55,20.83
19.049492120742798,20.54,8.28,8.16,23.6
19.057978868484497,22.61,32.28,4.13,39.62
19.068113088607788,15.96,19.02,-6.85,25.75
19.07792091369629,20.93,-12.87,9.7,26.41
19.088583946228027,23.62,-15.03,0.83,28.0
19.101020097732544,12.79,-2.48,-6.28,14.46
19.11075186729431,-9.62,3.42,11.12,15.09
19.11825394630432,-17.37,1.11,24.68,30.2
19.146443128585815,-6.69,12.85,4.09,15.05
19.149018049240112,-0.35,1.45,-3.32,3.63
19.150609016418457,2.25,-2.52,-2.43,4.16
19.15903902053833,1.13,0.58,-1.04,1.64
19.168573141098022,-0.08,-0.1,1.54,1.54
19.178425073623657,0.14,-0.1,-0.44,0.47
19.188941955566406,1.01,-0.37,-1.47,1.82
19.201342821121216,0.46,-0.18,-0.41,0.64
19.209113836288452,-0.23,0.06,0.97,0.99
19.222084999084473,-0.39,0.34,0.85,0.99
19.245548963546753,-0.42,0.22,0.32,0.57
19.248114824295044,-0.53,0.34,-0.37,0.73
19.24962091445923,-0.77,0.52,-1.17,1.49
19.258984804153442,-0.7,0.36,-1.52,1.71
19.269121885299683,-0.32,0.14,-1.18,1.23
19.279107809066772,0.09,-0.03,-0.6,0.6
19.289302110671997,0.23,-0.12,-0.19,0.32
19.302275896072388,0.14,-0.04,0.03,0.14
19.30923581123352,-0.12,0.13,-0.31,0.35
19.32322597503662,-0.33,0.24,-0.55,0.68
19.34664511680603,-0.55,0.4,-0.57,0.88
19.348254919052124,-0.39,0.23,-0.61,0.75
19.349939107894897,0.19,0.01,-0.49,0.52
19.359505891799927,0.0,0.36,0.36,0.5
19.369563817977905,-1.61,1.47,-0.31,2.2
19.37987995147705,-2.16,1.12,-0.21,2.44
19.389774084091187,-1.86,1.21,0.34,2.24
19.40299892425537,-1.29,1.13,0.45,1.77
19.410043001174927,-0.9,0.91,0.1,1.28
19.4201819896698,-0.96,0.99,-0.36,1.42
19.45133900642395,-1.18,0.84,-0.42,1.5
19.45309591293335,-1.33,0.97,-0.33,1.67
19.454657793045044,-1.58,1.56,-0.62,2.3
19.460241079330444,-1.88,2.17,-0.96,3.02
19.47009301185608,-2.32,2.78,-1.4,3.88
19.48040509223938,-3.07,3.24,-2.05,4.91
19.49054789543152,-4.1,3.68,-2.34,5.98
19.500330924987793,-5.13,4.13,-2.78,7.14
19.51362109184265,-6.34,4.79,-2.92,8.46
19.523818969726562,-7.63,5.39,-2.96,9.79
19.551020860671997,-9.37,6.17,-2.46,11.48
19.553642988204956,-12.1,8.91,-2.61,15.25
19.555227041244507,-15.61,13.2,-6.79,21.54
19.561088800430298,-18.44,15.23,-10.8,26.24
19.571635007858276,-19.8,16.24,-12.17,28.35
19.582640886306763,-17.59,15.29,-12.62,26.5
19.591763973236084,-10.03,14.58,-10.17,20.41
19.603742837905884,-0.11,2.18,-7.67,7.97
19.610846996307373,6.43,-2.68,-3.07,7.61
19.6246178150177,1.61,-1.85,-7.33,7.72
19.647331953048706,-3.65,-17.15,-4.67,18.14
19.649152994155884,-7.01,-22.51,-0.91,23.59
19.651209115982056,-10.07,-10.63,-5.18,15.53
19.661248922348022,-16.56,-6.21,-8.29,19.53
19.671726942062378,-19.75,-7.09,-10.89,23.64
19.68134093284607,-18.39,-8.98,-9.42,22.52
19.69136095046997,-15.27,-9.59,-7.4,19.49
19.701532125473022,-10.37,-8.89,-4.64,14.42
19.711920976638794,-9.32,-8.53,-2.21,12.82
19.724535942077637,-10.17,-8.23,-1.92,13.22
19.74805188179016,-9.65,-7.54,-1.66,12.35
19.750566005706787,-8.68,-6.41,-1.88,10.95
19.752110958099365,-8.09,-5.15,-2.24,9.84
19.761811017990112,-7.49,-3.79,-2.55,8.77
19.771891832351685,-6.67,-2.47,-2.98,7.71
19.782081842422485,-5.85,-1.55,-3.16,6.82
19.79483389854431,-5.32,-0.93,-2.61,5.99
19.80242395401001,-5.16,-0.38,-1.46,5.37
19.8158438205719,-5.19,0.29,-0.15,5.2
19.82253098487854,-5.31,1.02,0.88,5.47
19.854147911071777,-5.52,1.7,1.57,5.98
19.856678009033203,-5.56,2.61,1.9,6.42
19.858171939849854,-5.09,3.95,1.72,6.66
19.86223602294922,-4.12,5.4,0.83,6.84
19.872376918792725,-2.48,6.88,-0.16,7.31
19.88266110420227,0.24,8.45,-0.78,8.48
19.89279007911682,3.19,9.94,-1.33,10.52
19.90667986869812,5.53,11.34,-1.84,12.74
19.913581132888794,7.76,13.63,-2.26,15.84
19.925748109817505,9.0,12.67,-1.4,15.6
19.948002099990845,11.52,14.58,1.19,18.61
19.949769020080566,15.4,16.13,2.31,22.42
19.95373296737671,19.18,13.03,4.03,23.53
19.965866804122925,22.44,9.8,5.17,25.02
19.973708868026733,23.76,9.03,5.9,26.09
19.985809087753296,26.17,10.16,5.06,28.52
19.994147062301636,29.67,13.71,4.19,32.95
20.0043728351593,32.59,16.97,4.2,36.98
20.01779294013977,26.94,-1.09,4.22,27.29
20.024842023849487,27.68,-13.7,12.99,33.5
20.02793598175049,27.87,-13.8,12.62,33.56
20.04582691192627,22.4,-8.46,0.04,23.94
20.048332929611206,4.58,-2.89,-2.6,6.0
20.055776834487915,-14.46,1.27,25.1,28.99
20.065622091293335,-13.5,6.36,12.09,19.2
20.075927019119263,-6.72,12.59,-0.33,14.27
20.085870027542114,-6.52,2.34,-4.25,8.12
20.096493005752563,-0.86,-0.16,-2.48,2.62
20.109513998031616,3.48,-0.54,0.47,3.55
20.116516828536987,2.47,-0.79,1.95,3.24
20.12996792793274,-0.84,0.32,-0.51,1.03
20.15078091621399,-1.4,0.43,-1.56,2.13
20.152450799942017,0.32,-0.16,-0.1,0.37
20.156235933303833,1.4,-0.62,0.82,1.73
20.1664400100708,0.72,-0.27,0.54,0.93
20.176316022872925,-0.33,0.17,-0.24,0.44
20.186482906341553,-0.61,0.37,-0.96,1.19
20.196614980697632,-0.4,0.28,-1.28,1.36
20.206912994384766,-0.08,-0.08,-0.83,0.83
20.21928095817566,0.16,-0.16,-0.41,0.46
20.227022886276245,0.29,-0.28,-0.21,0.45
20.24979591369629,0.06,-0.08,-0.46,0.47
20.252217054367065,-0.4,0.12,-0.88,0.97
20.256694078445435,-0.73,0.39,-1.22,1.47
20.266987085342407,-0.74,0.35,-1.0,1.29
20.276896953582764,-0.3,0.07,-0.54,0.62
20.286890983581543,0.36,-0.22,-0.34,0.54
20.299661874771118,0.34,-0.01,0.04,0.34
20.306970834732056,-0.53,0.52,-0.13,0.75
20.32006001472473,-1.06,0.53,-0.29,1.22
20.32723307609558,-1.22,0.77,0.07,1.44
20.348294019699097,-1.18,0.95,0.01,1.51
20.350682973861694,-1.15,0.93,0.01,1.47
20.35735583305359,-1.23,1.05,-0.06,1.61
20.36731195449829,-1.32,1.13,0.06,1.73
20.377444982528687,-1.21,0.97,0.11,1.55
20.38776183128357,-1.08,0.71,0.21,1.3
20.40057897567749,-0.94,0.56,0.42,1.17
20.408077001571655,-0.96,1.2,-0.29,1.56
20.419957876205444,-1.44,2.07,-1.21,2.79
20.42812180519104,-2.17,3.02,-1.89,4.17
20.452586889266968,-3.29,3.9,-2.45,5.66
20.454983949661255,-4.47,4.48,-2.69,6.87
20.457792043685913,-5.84,5.12,-2.74,8.23
20.467886924743652,-7.27,5.59,-2.81,9.59
20.477901935577393,-8.73,5.6,-2.32,10.62
20.48836398124695,-10.92,6.78,-1.14,12.9
20.498145818710327,-14.02,10.43,-3.57,17.83
20.511412858963013,-16.86,12.78,-8.16,22.67
20.518301010131836,-18.55,12.54,-9.06,24.15
20.531341791152954,-18.9,13.15,-9.35,24.85
20.551639795303345,-14.22,19.78,-8.74,25.88
20.55334496498108,-3.48,15.71,-11.01,19.49
20.558434009552002,3.76,-3.98,-8.05,9.73
20.568768978118896,3.12,-10.42,-6.51,12.67
20.5785710811615,-4.95,-19.35,-6.26,20.93
20.58877682685852,-13.88,-14.0,-1.13,19.74
20.600818872451782,-19.3,-8.92,-4.96,21.83
20.613157033920288,-19.15,-6.1,-4.94,20.69
20.620502948760986,-17.08,-8.25,-7.05,20.23
20.633234977722168,-12.79,-9.02,-8.52,17.81
20.655911922454834,-8.6,-8.53,-8.57,14.83
20.658698797225952,-7.21,-9.05,-8.26,14.21
20.66058897972107,-6.98,-9.27,-6.96,13.53
20.670759916305542,-6.35,-8.62,-5.28,11.93
20.681040048599243,-5.66,-8.31,-3.45,10.62
20.69123601913452,-5.81,-8.16,-1.79,10.17
20.701043844223022,-6.86,-7.05,-0.72,9.86
20.71143889427185,-8.06,-5.24,-0.31,9.61
20.724690914154053,-8.9,-3.49,-0.4,9.56
20.73415493965149,-8.83,-2.04,-0.47,9.07
20.7554829120636,-7.32,-1.07,-0.46,7.41
20.758162021636963,-5.31,-0.49,-0.15,5.33
20.761210918426514,-4.42,0.31,0.57,4.46
20.771378993988037,-4.65,1.39,1.48,5.07
20.781583070755005,-4.78,2.53,2.3,5.87
20.7915518283844,-4.27,3.46,2.81,6.17
20.801830053329468,-3.49,4.46,2.55,6.21
20.81456208229065,-2.8,5.68,1.47,6.5
20.821851015090942,-1.66,7.05,0.01,7.24
20.834556818008423,0.1,8.24,-1.14,8.31
20.858982801437378,2.03,9.33,-1.99,9.75
20.861594915390015,4.3,10.59,-2.73,11.75
20.863178968429565,7.07,11.55,-2.58,13.78
20.87553095817566,10.66,11.83,-1.77,16.02
20.883070945739746,14.68,11.67,-0.56,18.76
20.89299511909485,17.58,11.54,1.18,21.06
20.90240788459778,18.93,10.13,2.61,21.62
20.91529393196106,19.32,8.39,5.56,21.78
20.922510862350464,18.77,7.09,7.66,21.47
20.93509292602539,19.39,6.82,8.92,22.4
20.95913290977478,20.09,6.22,9.29,22.99
20.961726903915405,19.04,5.93,8.42,21.64
20.96325397491455,24.33,22.77,6.84,34.01
20.97241497039795,19.48,29.07,-0.59,34.99
20.98259401321411,15.12,-7.56,3.61,17.28
20.992751836776733,22.24,-12.93,-0.85,25.73
21.00652003288269,17.39,-11.27,-11.76,23.82
21.012747049331665,4.35,0.82,-7.74,8.91
21.026000022888184,-10.31,1.86,12.28,16.14
21.03503680229187,-14.27,2.98,24.65,28.63
21.059628009796143,-6.16,11.38,13.44,18.65
21.062204122543335,0.59,0.14,-3.09,3.14
21.063817024230957,2.88,-2.43,-2.56,4.55
21.073112964630127,0.82,0.64,-2.16,2.39
21.08323097229004,-0.95,0.0,0.1,0.95
21.093395948410034,-0.45,0.35,-1.26,1.38
21.103398084640503,0.51,-0.08,-2.86,2.9
21.116684913635254,0.02,-0.02,-2.74,2.74
21.12565588951111,-0.23,-0.11,-0.36,0.44
21.133901834487915,0.17,-0.03,2.15,2.15
21.16375184059143,0.34,-0.04,2.75,2.77
21.166204929351807,0.4,-0.16,1.09,1.17
21.167784929275513,-0.28,0.26,-0.89,0.96
21.17380690574646,-1.09,0.49,-2.08,2.39
21.183605909347534,-1.49,0.66,-2.61,3.07
21.193975925445557,-1.19,0.51,-2.44,2.76
21.203633069992065,-0.39,0.1,-1.4,1.45
21.217180967330933,0.39,-0.34,-0.2,0.55
21.226265907287598,0.52,-0.2,0.6,0.81
21.23450994491577,0.21,-0.02,0.51,0.55
21.26388692855835,-0.37,0.3,0.31,0.56
21.26633381843567,-0.57,0.25,-0.37,0.72
21.267931938171387,0.18,-0.1,-0.94,0.96
21.274204969406128,-0.95,1.39,-0.02,1.68
21.284101009368896,-2.44,1.61,-1.3,3.19
21.294333934783936,-2.51,0.85,-0.43,2.68
21.304346799850464,-1.78,0.81,0.35,1.98
21.314677953720093,-1.0,0.82,0.72,1.48
21.327327013015747,-0.66,0.67,0.73,1.19
21.33763599395752,-0.71,0.38,0.32,0.86
21.361823797225952,-0.82,0.44,-0.29,0.97
21.36438012123108,-1.21,0.92,-0.9,1.76
21.365940809249878,-2.09,1.54,-1.43,2.96
21.374763011932373,-3.09,2.75,-2.03,4.6
21.384928941726685,-4.08,3.71,-2.47,6.04
21.39524793624878,-4.78,4.05,-2.36,6.69
21.40467095375061,-5.38,4.07,-1.8,6.98
21.41809391975403,-6.51,4.56,-1.18,8.03
21.42498803138733,-8.47,6.28,-0.74,10.57
21.438302993774414,-11.49,9.6,-1.07,15.01
21.46282410621643,-14.4,12.7,-4.88,19.81
21.465444803237915,-16.64,12.48,-7.39,22.07
21.46701407432556,-18.04,12.19,-7.94,23.17
21.476094961166382,-16.04,14.99,-9.74,24.01
21.48540496826172,-8.58,16.02,-10.22,20.84
21.49563193321228,-1.35,3.33,-9.59,10.24
21.505806922912598,2.84,-7.42,-8.01,11.28
21.518625020980835,-0.52,-13.36,-7.77,15.46
21.52856183052063,-7.29,-14.56,-4.87,16.99
21.539012908935547,-14.9,-9.05,-4.01,17.88
21.562031030654907,-17.9,-7.2,-3.41,19.59
21.56375813484192,-17.91,-7.42,-3.92,19.77
21.565742015838623,-15.93,-9.84,-5.18,19.42
21.57607388496399,-13.01,-10.29,-5.79,17.56
21.58597207069397,-10.53,-9.31,-5.31,15.02
21.596081972122192,-9.38,-9.3,-4.69,14.01
21.6060049533844,-8.0,-9.51,-3.98,13.04
21.616358041763306,-6.99,-8.75,-3.33,11.68
21.626708984375,-7.16,-7.36,-2.94,10.68
21.63926601409912,-7.69,-6.04,-2.84,10.18
21.66394591331482,-7.79,-5.11,-2.65,9.68
21.6663601398468,-7.65,-4.38,-2.07,9.05
21.667886972427368,-7.36,-3.38,-1.35,8.21
21.676466941833496,-6.76,-2.59,-0.5,7.25
21.686407804489136,-6.29,-1.86,0.3,6.56
21.696283102035522,-6.29,-0.69,0.58,6.35
21.709665060043335,-6.7,0.92,0.84,6.81
21.71675705909729,-6.57,2.7,0.98,7.17
21.729995012283325,-5.23,4.13,1.3,6.78
21.737337827682495,-3.45,5.14,1.15,6.29
21.76640009880066,-1.88,6.38,0.4,6.66
21.7688410282135,0.08,8.09,-0.85,8.13
21.770375967025757,2.38,9.34,-2.09,9.86
21.77699112892151,4.89,9.95,-2.82,11.43
21.78804612159729,7.93,10.35,-2.57,13.28
21.79798913002014,10.81,10.75,-1.12,15.28
21.80798101425171,13.4,11.12,0.59,17.42
21.821679830551147,15.87,11.27,2.74,19.65
21.828238010406494,17.77,10.91,4.09,21.24
21.840819120407104,18.43,10.87,4.34,21.83
21.861701011657715,19.18,8.04,4.13,21.2
21.86341881752014,20.5,6.71,5.04,22.15
21.86740279197693,21.28,5.43,6.25,22.83
21.877970933914185,21.48,4.46,7.47,23.17
21.88828206062317,21.44,14.89,6.02,26.78
21.89827799797058,19.73,31.99,4.9,37.9
21.907634973526,14.11,4.8,1.84,15.01
21.921191930770874,17.96,-7.25,4.6,19.9
21.92797303199768,15.55,-6.01,-8.08,18.52
21.94089913368225,4.23,-1.42,-12.34,13.12
21.965102910995483,-7.74,2.28,-0.6,8.09
21.9668390750885,-10.22,1.29,19.71,22.23
21.96839690208435,-5.02,7.16,24.91,26.4
21.978150129318237,3.11,-1.06,5.86,6.71
21.988063097000122,5.23,-2.11,-3.82,6.81
21.998228788375854,2.14,-0.4,-5.73,6.12
22.008363962173462,-2.16,0.36,-4.85,5.32
22.018635034561157,-2.08,0.54,-0.65,2.24
22.031163930892944,0.56,0.06,0.6,0.82
22.041369915008545,0.97,-0.19,-0.65,1.18
22.066402912139893,-0.59,0.2,-1.64,1.75
22.068959951400757,-1.18,0.19,-0.85,1.46
22.07048797607422,-0.07,-0.02,1.24,1.24
22.078710794448853,0.92,-0.24,1.95,2.16
22.088737964630127,0.4,-0.04,0.47,0.61
22.0988929271698,-0.63,0.3,-1.21,1.39
22.111943006515503,-1.02,0.5,-2.19,2.46
22.118940114974976,-0.75,0.27,-1.75,1.92
22.1321759223938,-0.21,0.03,-0.88,0.9
22.138999938964844,0.25,-0.24,0.14,0.37
22.165534019470215,0.23,-0.14,0.57,0.63
22.16806197166443,-0.05,0.15,0.27,0.31
22.169601917266846,-0.46,0.35,-0.21,0.61
22.179245948791504,-0.57,0.32,-0.86,1.08
22.189418077468872,-0.43,0.3,-0.94,1.07
22.19943404197693,-0.28,0.24,-1.23,1.28
22.20989203453064,-0.1,0.07,-1.04,1.04
22.22318196296692,0.44,-0.22,-0.71,0.86
22.229915857315063,-1.02,1.42,0.65,1.86
22.24264407157898,-2.22,1.36,-0.49,2.64
22.26606583595276,-2.46,1.15,0.53,2.76
22.26777696609497,-2.25,1.25,1.2,2.83
22.26982092857361,-1.68,1.16,1.03,2.28
22.27992606163025,-1.47,1.07,0.74,1.96
22.29002594947815,-1.49,0.97,0.36,1.81
22.300008058547974,-1.73,1.39,-0.8,2.35
22.310023069381714,-2.01,2.04,-1.77,3.36
22.320106983184814,-2.61,2.52,-2.62,4.47
22.330471992492676,-3.34,3.22,-2.91,5.47
22.34282088279724,-4.4,4.0,-2.71,6.53
22.370141983032227,-5.52,4.45,-2.1,7.39
22.37186598777771,-6.73,4.61,-1.25,8.25
22.37339496612549,-8.58,5.44,-0.19,10.16
22.380527019500732,-11.37,8.23,0.12,14.03
22.3902690410614,-14.72,12.54,-3.56,19.66
22.40106987953186,-17.74,13.68,-6.96,23.45
22.41138195991516,-19.77,13.68,-8.43,25.47
22.421448945999146,-18.53,14.95,-10.57,26.04
22.431352853775024,-10.9,14.35,-10.02,20.61
22.443437814712524,-1.83,4.05,-9.93,10.87
22.466642141342163,3.32,-5.92,-6.74,9.56
22.468376874923706,0.54,-10.74,-7.93,13.36
22.470959901809692,-2.76,-17.39,-5.55,18.46
22.481189012527466,-7.73,-12.4,-2.93,14.9
22.491066932678223,-13.4,-8.88,-4.17,16.6
22.501065969467163,-16.2,-7.5,-3.88,18.26
22.51109790802002,-16.47,-9.32,-5.53,19.71
22.524450063705444,-14.84,-10.33,-5.68,18.95
22.531479120254517,-12.75,-9.94,-5.38,17.03
22.544225931167603,-11.3,-9.37,-3.92,15.19
22.567117929458618,-10.17,-9.3,-2.79,14.06
22.56885600090027,-8.57,-8.95,-1.85,12.52
22.571340799331665,-7.56,-7.82,-1.56,10.98
22.581684827804565,-7.63,-6.41,-1.96,10.15
22.591413021087646,-7.96,-5.01,-2.31,9.68
22.601802110671997,-7.89,-3.65,-2.17,8.96
22.611715078353882,-7.49,-2.14,-1.89,8.01
22.62462592124939,-6.95,-0.88,-1.83,7.24
22.634902000427246,-6.11,-0.43,-1.19,6.23
22.64207696914673,-5.13,0.0,0.2,5.13
22.673115968704224,-4.59,0.97,1.6,4.95
22.675611972808838,-4.51,2.35,2.46,5.64
22.677061796188354,-4.24,3.61,2.71,6.19
22.68207287788391,-4.01,4.83,2.27,6.67
22.692266941070557,-3.54,6.43,0.79,7.38
22.702353954315186,-1.67,7.63,-0.27,7.81
22.71251606941223,1.22,8.2,-0.58,8.31
22.722800970077515,3.88,8.66,-0.78,9.52
22.735692977905273,5.77,9.33,-1.06,11.02
22.744601011276245,6.93,10.14,-1.65,12.39
22.769190073013306,7.79,10.76,-1.79,13.4
22.77176785469055,9.42,11.41,-1.21,14.84
22.773391008377075,12.55,11.15,0.19,16.78
22.782686948776245,15.71,9.94,2.26,18.72
22.79266595840454,18.17,8.83,3.47,20.49
22.80304789543152,19.55,7.71,4.29,21.44
22.812856912612915,19.55,5.49,4.71,20.84
22.825970888137817,20.37,2.95,5.64,21.34
22.832832098007202,21.67,3.83,6.84,23.04
22.844022035598755,26.49,25.76,5.3,37.32
22.87383484840393,20.48,20.27,-2.75,28.94
22.875627994537354,18.58,-10.41,5.96,22.11
22.877251863479614,24.91,-9.74,-1.6,26.79
22.883085012435913,18.84,-11.89,-15.65,27.22
22.89310908317566,5.36,-0.87,-9.16,10.64
22.903316020965576,-8.95,-0.33,6.8,11.24
22.913638830184937,-16.02,2.94,20.39,26.09
22.923629999160767,-9.8,11.48,32.97,36.26
22.93664002418518,2.19,0.38,2.59,3.41
22.943651914596558,4.83,-2.14,-2.85,6.0
22.970229864120483,1.07,-0.18,-6.7,6.78
22.973143815994263,-2.71,0.9,-7.29,7.82
22.974687814712524,-2.28,0.82,-5.1,5.64
22.983743906021118,0.31,-0.04,-2.28,2.3
22.994024991989136,1.14,-0.4,0.6,1.34
23.003729104995728,0.42,-0.23,2.45,2.49
23.014477014541626,-0.02,0.0,2.91,2.91
23.026978015899658,0.15,0.07,1.39,1.39
23.034183979034424,0.1,-0.02,-0.51,0.52
23.046873807907104,-0.29,0.21,-1.88,1.91
23.075933933258057,-0.63,0.29,-1.9,2.02
23.07770609855652,-0.61,0.23,-1.16,1.33
23.079293966293335,-0.55,0.29,-0.28,0.68
23.084253072738647,-0.28,0.05,0.24,0.37
23.094408988952637,0.15,-0.13,0.45,0.49
23.104538917541504,0.13,0.08,0.36,0.39
23.114603996276855,-0.65,0.63,-0.23,0.93
23.12475895881653,-1.0,0.37,-0.74,1.29
23.13844084739685,-0.76,0.34,-0.49,0.96
23.144778966903687,-0.32,0.21,-0.3,0.48
23.17721199989319,0.03,-0.04,-0.06,0.07
23.179646015167236,0.12,-0.16,0.15,0.25
23.181219816207886,0.0,0.05,-0.26,0.26
23.184870958328247,-0.26,0.24,-0.58,0.67
23.195159912109375,-0.48,0.26,-0.79,0.96
23.20472502708435,-0.52,0.11,-0.63,0.82
23.21514391899109,-0.31,0.02,-0.33,0.45
23.225641012191772,-0.11,0.01,-0.22,0.24
23.23882293701172,-0.08,-0.06,0.06,0.11
23.245797872543335,-0.24,0.08,-0.16,0.29
23.275663137435913,-0.66,0.77,-0.71,1.23
23.27810788154602,-1.37,1.2,-0.82,1.99
23.279579877853394,-1.84,1.56,-1.22,2.7
23.285337924957275,-2.36,2.06,-1.19,3.35
23.29579186439514,-2.87,2.36,-0.92,3.82
23.305609941482544,-3.59,2.88,-0.92,4.69
23.315733909606934,-4.63,3.89,-1.4,6.2
23.325745820999146,-5.82,4.91,-1.11,7.69
23.339483976364136,-6.92,5.46,-1.45,8.93
23.346343994140625,-7.59,4.81,-0.44,8.99
23.37859296798706,-9.25,6.22,0.17,11.14
23.381049871444702,-12.55,10.68,-1.66,16.56
23.382685899734497,-16.12,14.32,-6.25,22.44
23.3867609500885,-18.4,15.63,-8.44,25.57
23.396968126296997,-18.23,14.65,-9.47,25.23
23.407001972198486,-13.62,13.5,-9.49,21.39
23.416383981704712,-5.43,9.91,-7.0,13.29
23.42630410194397,-0.64,-2.09,-7.44,7.75
23.44002890586853,-1.22,-5.7,-5.57,8.06
23.44693398475647,-7.04,-14.14,-8.99,18.17
23.476923942565918,-12.47,-14.89,-6.49,20.47
23.479427099227905,-16.01,-12.27,-5.51,20.91
23.481043100357056,-17.71,-8.34,-2.12,19.68
23.486483812332153,-17.95,-8.75,-1.79,20.04
23.496651887893677,-16.12,-10.04,-2.3,19.12
23.506829977035522,-14.09,-9.82,-3.61,17.54
23.516720056533813,-13.12,-9.07,-3.34,16.29
23.527162790298462,-12.16,-7.99,-2.45,14.75
23.54098391532898,-10.68,-7.0,-2.07,12.93
23.547061920166016,-9.31,-6.64,-2.26,11.65
23.57581400871277,-8.36,-5.87,-2.43,10.5
23.57832980155945,-7.83,-4.38,-2.7,9.36
23.57988691329956,-7.51,-3.07,-2.87,8.6
23.587369918823242,-6.85,-2.05,-2.95,7.73
23.597429037094116,-6.05,-1.13,-3.01,6.85
23.607495069503784,-5.29,-0.07,-3.42,6.29
23.617840051651,-4.4,1.13,-3.63,5.81
23.6302809715271,-3.34,2.03,-3.54,5.27
23.637471914291382,-2.6,2.58,-2.82,4.62
23.650502920150757,-2.59,3.32,-2.03,4.67
23.679471969604492,-3.12,4.14,-1.5,5.39
23.681934118270874,-3.1,4.96,-1.72,6.09
23.68353581428528,-1.61,5.71,-2.34,6.37
23.69302797317505,0.91,6.34,-3.03,7.08
23.69774079322815,3.72,6.93,-3.78,8.72
23.708168983459473,6.38,7.72,-4.46,10.96
23.717803955078125,8.81,8.79,-5.49,13.6
23.730687856674194,11.39,9.43,-6.18,16.02
23.738299131393433,14.04,9.61,-5.77,17.96
23.751202821731567,16.31,9.86,-4.58,19.6
23.778931856155396,17.2,10.36,-2.4,20.22
23.78142809867859,17.93,7.11,-0.47,19.29
23.78301501274109,19.51,5.65,2.23,20.43
23.788249015808105,20.67,3.53,4.58,21.46
23.79826283454895,21.43,1.52,6.93,22.57
23.80927014350891,21.72,1.05,7.61,23.03
23.820181131362915,21.74,2.73,6.94,22.98
23.829340934753418,24.24,23.84,3.66,34.19
23.842319011688232,23.1,31.73,-0.83,39.25
23.849499940872192,20.62,-3.68,2.64,21.11
23.877460956573486,25.82,-15.72,1.37,30.26
23.88003182411194,18.75,-9.32,-7.79,22.34
23.88162899017334,1.57,2.09,-7.18,7.64
23.888818979263306,-12.25,-0.93,6.57,13.93
23.898881912231445,-14.91,3.72,31.91,35.41
23.909104108810425,-8.18,11.39,28.36,31.63
23.91899299621582,3.76,-0.39,0.37,3.79
23.929461002349854,5.93,-3.24,-3.38,7.55
23.94283890724182,2.25,-0.25,-6.64,7.01
23.949629068374634,-1.97,0.34,-6.73,7.02
23.979522943496704,-2.51,0.67,-3.32,4.21
23.98198103904724,0.31,-0.1,-0.01,0.32
23.98356604576111,1.73,-0.6,1.24,2.21
23.989478826522827,0.76,-0.24,1.66,1.84
23.99954581260681,-0.51,0.11,0.95,1.08
24.00963282585144,-0.74,0.22,0.43,0.88
24.019611120224,-0.37,0.29,0.01,0.47
24.02982497215271,-0.31,0.28,-0.75,0.85
24.042627096176147,-0.59,0.38,-1.52,1.67
24.050198793411255,-0.76,0.34,-1.87,2.04
24.080621004104614,-0.59,0.12,-1.65,1.75
24.083096981048584,-0.06,-0.2,-0.79,0.81
24.084699869155884,0.28,-0.13,-0.03,0.31
24.089980840682983,0.19,-0.01,0.33,0.38
24.100193977355957,-0.1,0.13,0.25,0.29
24.110270023345947,-0.52,0.46,-0.06,0.69
24.120321035385132,-0.53,0.24,-0.61,0.84
24.13032293319702,0.05,-0.04,-0.96,0.96
24.143183946609497,-0.13,0.53,0.04,0.54
24.15298581123352,-1.61,1.88,-0.8,2.6
24.177544832229614,-2.18,1.06,-0.8,2.55
24.179996967315674,-2.06,0.99,0.09,2.28
24.181469917297363,-1.63,0.93,0.35,1.9
24.19057583808899,-1.21,0.86,0.54,1.57
24.200814962387085,-0.94,0.73,0.42,1.26
24.210922956466675,-0.89,0.74,0.07,1.15
24.22052311897278,-1.01,1.03,-0.45,1.51
24.23381495475769,-1.53,1.74,-1.28,2.64
24.243420839309692,-2.25,2.74,-1.96,4.05
24.251413106918335,-3.25,4.08,-3.06,6.04
24.281569957733154,-4.4,4.88,-3.37,7.38
24.284126043319702,-5.45,5.43,-3.17,8.32
24.285699129104614,-6.4,4.72,-2.66,8.38
24.29305386543274,-7.51,4.67,-1.34,8.94
24.301367044448853,-9.65,6.4,-0.68,11.59
24.311333894729614,-12.83,10.37,-0.76,16.51
24.322181940078735,-16.52,14.2,-5.18,22.39
24.334558963775635,-20.23,15.99,-8.47,27.14
24.34458088874817,-22.18,16.43,-9.54,29.2
24.35272192955017,-20.24,16.1,-9.66,27.6
24.380855798721313,-12.02,14.74,-11.58,22.26
24.38334894180298,-1.52,-0.94,-9.38,9.54
24.384936094284058,1.91,-6.69,-6.68,9.64
24.39176893234253,-1.97,-12.01,-9.22,15.26
24.40190291404724,-2.73,-17.42,-3.9,18.05
24.41213297843933,-4.6,-16.71,-1.34,17.38
24.42188596725464,-11.35,-8.83,-2.79,14.64
24.43473982810974,-16.9,-8.29,-4.57,19.37
24.442246913909912,-17.14,-8.76,-6.1,20.19
24.45581603050232,-16.64,-9.49,-6.14,20.11
24.478996992111206,-15.04,-9.64,-7.25,19.27
24.48077392578125,-11.07,-9.33,-5.66,15.54
24.48236107826233,-9.75,-9.26,-4.13,14.06
24.492303133010864,-9.65,-8.82,-2.81,13.37
24.502450942993164,-8.51,-7.84,-1.48,11.66
24.512638807296753,-7.16,-6.8,-0.82,9.9
24.522557020187378,-6.47,-5.69,-1.41,8.73
24.532752990722656,-6.4,-4.45,-3.03,8.36
24.546056985855103,-6.14,-3.3,-4.34,8.21
24.556281805038452,-5.58,-1.86,-4.67,7.51
24.582661867141724,-5.01,-0.66,-3.55,6.17
24.585129976272583,-4.53,0.25,-1.6,4.81
24.586740016937256,-4.45,1.54,0.75,4.76
24.592748880386353,-4.76,3.14,2.48,6.21
24.6027889251709,-4.95,4.85,3.53,7.77
24.6129789352417,-4.7,6.42,3.6,8.73
24.623178958892822,-3.95,7.62,2.74,9.0
24.636080026626587,-2.61,8.52,1.28,9.0
24.643139123916626,-0.91,9.64,0.17,9.68
24.65730881690979,1.26,10.89,-0.49,10.97
24.681617975234985,4.31,11.83,-0.54,12.6
24.683470964431763,8.39,12.17,-0.29,14.78
24.685065031051636,12.39,12.0,0.41,17.25
24.694211959838867,15.19,12.23,0.6,19.51
24.704044103622437,17.75,13.09,1.17,22.08
24.716216802597046,19.85,13.12,3.46,24.04
24.72445511817932,21.22,9.21,6.07,23.91
24.734280824661255,22.64,5.13,8.08,24.57
24.747198820114136,23.7,2.25,8.77,25.37
24.754656076431274,24.33,0.15,8.85,25.89
24.780349016189575,24.42,-1.53,8.88,26.02
24.7828528881073,23.3,0.5,8.37,24.76
24.784480810165405,23.87,25.83,5.76,35.63
24.79424786567688,9.37,9.83,1.47,13.65
24.804179906845093,12.02,-3.25,-2.42,12.68
24.81430411338806,5.43,-9.84,-13.09,17.25
24.824230909347534,-1.67,-2.33,-13.96,14.25
24.837387800216675,-1.35,4.81,-4.32,6.6
24.844396829605103,-1.5,2.18,2.87,3.9
24.85793900489807,-3.4,-0.86,10.32,10.89
24.88102412223816,-3.96,2.89,24.22,24.71
24.88282299041748,-0.08,2.01,16.59,16.71
24.884435892105103,4.11,-2.38,2.35,5.29
24.89453387260437,1.16,-0.45,-1.39,1.86
24.90451979637146,-1.38,-0.62,-5.05,5.27
24.914865970611572,-1.46,0.03,-6.73,6.88
24.92467498779297,-0.39,0.38,-7.58,7.59
24.938287019729614,-0.01,0.08,-6.15,6.15
24.944823026657104,-0.5,0.02,-3.03,3.07
24.958051919937134,-0.28,-0.2,0.13,0.36
24.980231046676636,0.42,-0.34,2.68,2.73
24.982017993927002,0.55,-0.16,4.0,4.04
24.98492693901062,0.17,0.04,3.45,3.45
24.995365858078003,-0.3,0.17,1.4,1.44
25.005028009414673,-0.71,0.28,-1.18,1.4
25.01546883583069,-1.03,0.36,-3.2,3.38
25.02580714225769,-1.13,0.28,-4.08,4.24
25.039012908935547,-0.93,0.25,-3.76,3.88
25.045767068862915,-0.4,0.01,-2.43,2.46
25.058871030807495,0.1,-0.22,-0.97,0.99
25.082287073135376,0.24,-0.19,0.0,0.3
25.084017038345337,0.03,0.06,0.85,0.85
25.08573293685913,-0.21,0.09,1.14,1.16
25.09592890739441,-0.4,0.31,1.02,1.13
25.10568594932556,0.08,-0.12,0.37,0.39
25.11584496498108,-0.28,0.78,1.05,1.33
25.125786066055298,-1.72,1.98,-0.4,2.65
25.135788917541504,-2.42,1.43,-0.59,2.87
25.148741006851196,-2.33,1.23,-0.16,2.63
25.158818006515503,-1.88,1.01,0.03,2.13
25.18368697166443,-1.46,0.85,0.06,1.69
25.185390949249268,-1.25,0.88,0.1,1.53
25.186952829360962,-1.31,1.25,-0.24,1.82
25.196257829666138,-1.39,1.76,-0.67,2.34
25.206526041030884,-1.71,2.0,-1.25,2.91
25.21656894683838,-2.13,2.6,-1.5,3.68
25.226556062698364,-2.87,3.53,-1.77,4.88
25.236780881881714,-3.94,4.87,-2.13,6.61
25.250438928604126,-5.14,5.95,-2.97,8.4
25.25887894630432,-6.41,6.2,-3.09,9.43
25.2817599773407,-7.99,6.92,-2.3,10.81
25.283581972122192,-10.33,9.73,-2.16,14.35
25.28688883781433,-13.27,12.13,-6.12,18.99
25.29958701133728,-15.69,12.65,-7.51,21.5
25.307681798934937,-17.31,12.64,-6.82,22.49
25.317718982696533,-17.0,11.86,-9.12,22.64
25.32824993133545,-15.39,13.84,-8.91,22.53
25.337265014648438,-8.06,2.42,-9.88,12.97
25.350188970565796,-3.45,-9.36,-7.55,12.51
25.360023975372314,-5.2,-14.37,-8.54,17.5
25.38791012763977,-6.46,-20.53,-3.55,21.81
25.389631032943726,-9.28,-17.83,-3.02,20.32
25.391173124313354,-12.82,-11.53,-0.05,17.24
25.39742112159729,-14.35,-10.42,0.62,17.74
25.40716004371643,-14.57,-8.92,0.24,17.08
25.417877912521362,-14.46,-9.26,-2.3,17.32
25.427624940872192,-13.04,-10.62,-4.31,17.36
25.437474012374878,-9.66,-10.71,-5.3,15.36
25.450477838516235,-7.08,-10.08,-4.28,13.04
25.45765495300293,-6.54,-9.1,-3.66,11.78
25.484535932540894,-6.65,-7.69,-2.1,10.38
25.486305952072144,-6.59,-6.23,-0.95,9.11
25.48792791366577,-6.49,-5.0,-0.35,8.2
25.497957944869995,-6.42,-3.85,-0.44,7.49
25.508160829544067,-6.1,-3.0,-0.75,6.83
25.517933130264282,-5.81,-2.11,-0.98,6.25
25.52816891670227,-5.88,-0.97,-0.81,6.01
25.53805899620056,-6.21,0.44,-0.69,6.26
25.5508029460907,-6.76,1.91,-0.14,7.02
25.55856990814209,-6.59,3.03,0.57,7.27
25.589884996414185,-5.27,3.85,1.41,6.67
25.591656923294067,-3.78,4.72,1.43,6.21
25.593218088150024,-3.06,6.09,0.66,6.84
25.598376989364624,-2.34,7.65,-0.35,8.0
25.608689069747925,-0.5,9.42,-0.76,9.46
25.61864399909973,2.92,11.02,-1.04,11.44
25.63136601448059,6.63,12.2,-1.38,13.95
25.639487981796265,9.35,13.25,-2.23,16.36
25.65348792076111,11.52,14.33,-3.77,18.76
25.65998911857605,13.52,16.13,-4.63,21.55
25.689318895339966,15.14,14.94,-3.91,21.62
25.691828966140747,16.46,13.2,-2.04,21.19
25.693434953689575,17.34,11.45,0.66,20.78
25.698977947235107,17.87,9.02,5.0,20.63
25.708950996398926,17.99,5.29,10.02,21.26
25.719374895095825,18.42,4.5,12.28,22.59
25.72937798500061,20.87,22.62,13.42,33.57
25.742657899856567,14.37,8.66,7.58,18.41
25.749372959136963,18.42,-9.91,4.48,21.39
25.762918949127197,24.23,-7.83,-6.7,26.33
25.79026484489441,20.17,-13.64,-11.25,26.82
25.791917085647583,13.64,-4.99,-9.42,17.31
25.793551921844482,6.75,3.89,-4.95,9.23
25.79953694343567,-4.32,2.55,-1.11,5.13
25.809536933898926,-10.11,5.04,1.02,11.34
25.819796800613403,-9.03,1.01,8.13,12.19
25.830014944076538,-5.8,-1.9,22.38,23.19
25.839878797531128,-1.22,2.39,25.6,25.74
25.8530490398407,4.95,-2.09,9.69,11.08
25.8599750995636,4.14,-2.56,1.57,5.11
25.886690855026245,1.25,0.27,-2.51,2.81
25.88951802253723,-0.58,-1.33,-6.07,6.24
25.89110779762268,-1.29,-1.29,-8.19,8.39
25.900372982025146,-0.88,0.17,-8.68,8.72
25.910507917404175,-0.15,0.77,-8.03,8.06
25.920159101486206,0.25,-0.42,-6.09,6.1
25.93048095703125,0.23,-0.97,-3.68,3.81
25.943728923797607,-0.12,-0.46,-1.31,1.39
25.950949907302856,-0.55,-0.16,0.18,0.6
25.964442014694214,-0.73,-0.08,1.37,1.55
25.987530946731567,-0.46,-0.11,2.15,2.2
25.989202976226807,-0.16,0.05,2.93,2.93
25.990812063217163,-0.52,1.12,3.03,3.27
26.001094102859497,-0.86,0.69,2.22,2.47
26.01074481010437,-0.78,0.24,1.65,1.84
26.020682096481323,-0.43,0.21,0.74,0.88
26.031134843826294,-0.13,0.19,-0.07,0.24
26.041186094284058,-0.08,0.24,-0.81,0.84
26.054261922836304,-0.37,0.55,-1.48,1.62
26.061134099960327,-0.74,0.8,-1.74,2.05
26.09237790107727,-0.81,0.78,-1.45,1.83
26.09486699104309,-0.33,0.54,-1.43,1.56
26.09633994102478,-0.29,-0.01,-1.02,1.06
26.101168870925903,-0.33,0.15,-0.72,0.8
26.111663103103638,-0.68,0.83,-0.77,1.32
26.121147871017456,-1.09,1.53,-0.78,2.03
26.131592988967896,-1.34,1.93,-1.09,2.59
26.144492864608765,-1.1,1.41,-1.2,2.15
26.151646852493286,-1.29,0.98,-0.62,1.73
26.1645290851593,-1.69,1.33,-0.8,2.29
26.193471908569336,-2.26,2.36,-0.72,3.34
26.19523787498474,-3.06,3.96,-0.52,5.03
26.19681191444397,-3.98,5.27,-1.09,6.69
26.20173692703247,-5.1,6.3,-1.25,8.2
26.212083101272583,-6.37,7.82,-1.39,10.18
26.22203493118286,-7.57,8.86,-1.68,11.77
26.232059955596924,-8.6,8.19,-2.1,12.06
26.242181062698364,-8.58,7.68,-5.13,12.6
26.256076097488403,-8.95,8.44,-5.55,13.49
26.262341022491455,-8.61,9.09,-5.19,13.55
26.29385781288147,-10.54,-1.76,-5.2,11.88
26.2963650226593,-11.45,-15.35,-4.64,19.7
26.2979519367218,-10.62,-12.71,-4.67,17.2
26.302324056625366,-9.31,-12.38,-7.24,17.09
26.31271004676819,-8.64,-13.71,-5.92,17.25
26.322650909423828,-8.6,-11.69,-3.53,14.93
26.332788944244385,-9.42,-9.62,-2.75,13.74
26.343169927597046,-9.57,-7.62,-1.44,12.31
26.35657286643982,-9.06,-5.82,-0.05,10.76
26.365330934524536,-7.94,-4.37,1.12,9.13
26.392616033554077,-5.73,-3.06,1.78,6.73
26.3951518535614,-3.81,-2.08,2.82,5.17
26.396749019622803,-2.63,-1.66,3.04,4.34
26.402872800827026,-1.95,-0.74,3.16,3.78
26.413229942321777,-1.68,0.52,2.61,3.14
26.423107862472534,-1.84,0.78,1.64,2.58
26.433060884475708,-1.92,0.8,1.0,2.3
26.446084022521973,-1.32,0.79,0.36,1.57
26.456642866134644,-0.43,0.93,0.29,1.06
26.463953018188477,0.19,1.01,0.11,1.03
26.49355697631836,0.45,1.0,0.18,1.11
26.496014833450317,0.63,1.11,0.47,1.36
26.497602939605713,0.87,1.28,0.8,1.74
26.503554105758667,1.0,1.6,0.9,2.09
26.513653993606567,1.02,1.72,0.45,2.04
26.523689031600952,1.08,1.49,0.04,1.84
26.534008979797363,1.85,1.2,-0.05,2.2
26.54399800300598,2.72,1.09,-0.01,2.93
26.557451009750366,2.62,0.89,-0.19,2.77
26.566175937652588,1.64,0.87,-0.16,1.86
26.59490990638733,1.52,1.31,-0.17,2.01
26.597423791885376,3.16,2.06,0.37,3.79
26.599007844924927,5.03,2.81,0.8,5.81
26.603963136672974,6.4,3.36,0.52,7.24
26.614359140396118,7.73,3.87,0.16,8.64
26.624490976333618,8.58,4.46,0.19,9.67
26.634814977645874,10.49,6.86,-0.98,12.57
26.647804975509644,12.59,11.19,-3.58,17.22
26.655425786972046,14.78,13.26,-4.75,20.41
26.66783595085144,19.57,15.07,-2.13,24.79
26.69121813774109,17.44,2.17,0.76,17.59
26.693888902664185,18.45,-5.7,12.38,22.93
26.695472955703735,15.06,0.9,-5.03,15.9
26.704543828964233,6.91,-2.42,-4.76,8.73
26.71494698524475,2.49,-6.61,2.41,7.46
26.724965810775757,4.38,-7.23,-6.39,10.59
26.73493194580078,3.04,-8.31,-2.6,9.22
26.745500802993774,2.43,-4.91,-0.82,5.53
26.758283853530884,2.44,0.35,1.31,2.79
26.7653489112854,0.33,0.12,7.29,7.29
26.79548692703247,-2.33,0.15,13.65,13.84
26.798102140426636,-3.87,3.01,13.51,14.37
26.799696922302246,-1.72,3.47,4.44,5.89
26.805299997329712,-1.18,1.28,-0.09,1.74
26.81530785560608,-0.73,1.08,-2.3,2.64
26.825466871261597,-0.63,0.37,-2.7,2.79
26.83553695678711,-0.43,0.33,-3.18,3.22
26.845668077468872,-0.63,0.98,-3.48,3.66
26.858969926834106,-0.64,0.48,-2.5,2.62
26.86618995666504,-0.39,0.13,-1.65,1.7
26.89643096923828,-0.01,0.36,-1.04,1.1
26.8989040851593,-0.22,0.08,-0.75,0.78
26.900496006011963,0.05,-0.02,-0.38,0.38
26.90596604347229,-0.09,-0.07,-0.14,0.18
26.91606307029724,-0.13,-0.02,0.03,0.13
26.925967931747437,0.01,-0.04,-0.06,0.07
26.935776948928833,0.19,-0.31,-0.03,0.36
26.946225881576538,0.35,-0.61,0.01,0.7
26.959487915039062,0.5,-0.72,0.04,0.87
26.966243028640747,0.58,-0.74,-0.15,0.95
26.994699001312256,0.58,-0.6,-0.57,1.01
26.997151136398315,0.47,-0.34,-0.69,0.9
26.998742818832397,0.29,-0.18,-0.83,0.89
27.006419897079468,0.16,-0.21,-0.88,0.91
27.016531944274902,0.09,-0.26,-0.78,0.82
27.026721954345703,0.03,-0.14,-0.37,0.39
27.0369770526886,-0.02,-0.14,-0.39,0.41
27.04935097694397,-0.01,-0.1,-0.55,0.55
27.057018995285034,-0.09,-0.01,-0.7,0.7
27.069825887680054,-0.17,0.33,-1.03,1.09
27.094355821609497,-0.13,0.16,-1.05,1.07
27.09697985649109,0.06,-0.99,-0.11,0.99
27.09855008125305,0.5,-1.69,0.98,2.01
27.10697913169861,1.01,-1.16,1.38,2.06
27.11720585823059,1.06,-0.18,1.23,1.63
27.127268075942993,0.61,1.16,1.6,2.06
27.137449979782104,-0.36,2.68,2.02,3.37
27.150842905044556,-0.94,4.77,1.22,5.01
27.159621000289917,-1.98,5.79,0.29,6.12
27.167381048202515,-3.27,4.52,-0.98,5.66
27.19752812385559,-3.65,2.02,-1.9,4.58
27.200063943862915,-3.52,-1.08,-1.0,3.81
27.20163893699646,-2.92,-2.34,-0.4,3.76
27.207570791244507,-1.75,-1.66,-1.33,2.75
27.217494010925293,-0.26,-0.88,-1.55,1.8
27.227929830551147,0.84,-0.87,-1.11,1.64
27.237560987472534,1.3,-1.66,-1.15,2.4
27.250487089157104,1.31,-2.59,-1.26,3.16
27.257601022720337,1.39,-3.17,-1.5,3.77
27.271163940429688,1.53,-3.87,-1.77,4.52
27.292721033096313,2.03,-4.7,-1.43,5.31
27.295221090316772,2.58,-4.05,-0.51,4.82
27.29782199859619,3.09,-2.95,0.23,4.27
27.30825901031494,3.39,-2.3,0.7,4.15
27.318207025527954,3.12,-1.47,0.82,3.54
27.32842183113098,2.43,-0.19,0.9,2.59
27.338452100753784,1.46,-0.09,1.38,2.01
27.351675987243652,0.41,-0.7,1.42,1.63
27.360841035842896,0.06,-0.27,0.84,0.88
27.36839509010315,-0.03,0.43,0.19,0.47
27.3989040851593,-0.21,0.65,-0.57,0.88
27.401437997817993,-0.45,0.84,-0.91,1.31
27.403013944625854,-0.67,1.11,-0.63,1.44
27.408654928207397,-0.85,1.32,-0.05,1.57
27.418720960617065,-1.14,1.64,-0.01,1.99
27.428807020187378,-1.46,2.03,0.01,2.5
27.43903398513794,-1.97,2.52,0.34,3.21
27.45193600654602,-2.5,1.78,0.49,3.1
27.458906888961792,-2.54,0.36,0.39,2.59
27.469650983810425,-2.06,-0.4,0.87,2.27
27.50133991241455,-1.18,0.0,0.61,1.32
27.503144025802612,-0.1,0.55,-0.01,0.55
27.50466513633728,0.46,0.1,-0.23,0.52
27.509167909622192,0.64,-0.53,-0.5,0.96
27.526859045028687,0.79,-0.79,-0.84,1.39
27.529335975646973,0.92,-0.99,-0.95,1.65
27.539475917816162,0.95,-1.14,-0.99,1.78
27.549479961395264,0.84,-1.03,-0.67,1.48
27.56264591217041,0.72,-0.75,-0.24,1.06
27.569734811782837,0.62,-0.27,-0.15,0.69
27.597923040390015,0.53,0.16,-0.35,0.65
27.600408792495728,0.3,0.17,-0.72,0.79
27.601936101913452,-0.02,0.1,-1.2,1.2
27.60977792739868,-0.25,0.41,-1.06,1.16
27.62008786201477,-0.48,0.83,-0.3,1.0
27.630085945129395,-0.71,0.92,0.29,1.19
27.640572786331177,-0.74,0.56,0.31,0.97
27.652703046798706,-0.14,-0.18,-0.63,0.67
27.660079956054688,0.67,-0.81,-1.6,1.91
27.674098014831543,1.26,-1.17,-2.3,2.87
27.697057008743286,1.46,-1.7,-3.03,3.76
27.69871211051941,1.38,-1.99,-3.2,4.01
27.70032501220703,1.44,-1.83,-2.85,3.68
27.710392951965332,1.59,-1.24,-1.57,2.55
27.720515966415405,1.29,-0.72,-0.19,1.48
27.730767965316772,0.48,-0.15,0.73,0.88
27.740445852279663,-1.88,1.59,4.13,4.8
27.754174947738647,-3.59,3.67,8.94,10.3
27.760595083236694,-4.16,3.37,7.65,9.33
27.77447009086609,-3.33,1.17,2.43,4.28
27.79902195930481,-1.48,-0.24,-2.41,2.83
27.80081009864807,-0.17,-0.97,-3.47,3.6
27.802433013916016,0.69,-1.12,-2.5,2.82
27.81114411354065,1.36,-1.13,-1.22,2.14
27.820738077163696,1.64,-0.86,0.36,1.88
27.831247091293335,1.2,0.08,2.63,2.89
27.840996026992798,0.54,0.43,2.48,2.57
27.851195096969604,0.09,-0.71,-1.26,1.44
27.86408495903015,-0.37,-1.44,-4.49,4.72
27.8714919090271,-1.6,-1.84,-7.0,7.41
27.90098214149475,-2.01,1.02,-4.05,4.63
27.903553009033203,-1.19,1.38,2.62,3.19
27.905079126358032,1.08,-1.18,7.08,7.25
27.911489009857178,2.44,-0.16,5.01,5.57
27.926743984222412,1.83,-0.51,0.71,2.02
27.931607961654663,1.1,-0.13,-0.24,1.13
27.941504955291748,0.0,0.9,-0.48,1.02
27.951996088027954,-0.34,0.79,-1.13,1.42
27.964751958847046,0.29,-0.49,-1.24,1.36
27.972195863723755,0.37,-0.97,0.1,1.04
28.004876852035522,-1.17,-0.59,0.81,1.54
28.0074679851532,-2.5,-0.05,0.17,2.5
28.009051084518433,-2.15,-0.72,-1.3,2.61
28.01190209388733,-1.71,-0.71,-1.74,2.54
28.022215127944946,-1.5,0.18,-1.48,2.11
28.032140016555786,-1.94,0.96,-1.75,2.78
28.042493104934692,-2.31,0.7,-1.01,2.61
28.05263590812683,-1.69,0.05,0.3,1.71
28.065664052963257,-0.88,0.16,0.73,1.15
28.075114965438843,-1.67,0.87,-0.34,1.91
28.0991370677948,-1.75,1.54,-0.8,2.46
28.100888967514038,-0.98,1.08,-0.74,1.63
28.10254406929016,1.83,1.32,-3.27,3.97
28.112883806228638,4.2,-0.87,-1.43,4.52
28.122820138931274,5.11,-2.75,2.41,6.28
28.13274598121643,5.01,-3.0,2.9,6.51
28.142899990081787,3.35,-2.23,2.6,4.79
28.153223991394043,2.3,-1.71,1.41,3.19
28.16589379310608,1.97,0.1,-0.89,2.16
28.1756808757782,0.91,0.8,-1.86,2.21
28.201623916625977,-0.67,3.08,-0.97,3.29
28.20340895652771,-2.79,2.86,-0.4,4.01
28.204926013946533,-2.42,2.22,-0.52,3.32
28.213396787643433,-3.05,2.31,-0.36,3.84
28.22610878944397,-2.24,2.13,-0.42,3.11
28.2332661151886,-1.98,3.36,-1.08,4.04
28.243487119674683,-3.03,4.8,-0.47,5.69
28.253469944000244,-3.51,5.56,0.75,6.61
28.265690088272095,-3.03,5.56,0.99,6.4
28.27395510673523,-1.18,6.98,-1.01,7.15
28.304588079452515,0.03,8.66,-2.55,9.02
28.30635905265808,-1.97,0.0,-1.45,2.44
28.307946920394897,-2.01,-8.86,-2.02,9.3
28.313671827316284,-0.46,-11.55,1.2,11.62
28.324014902114868,1.48,-10.38,7.12,12.67
28.333992958068848,2.94,-7.89,6.74,10.78
28.344088792800903,4.63,-3.5,-0.25,5.8
28.354432821273804,4.41,-0.17,-3.85,5.85
28.36670184135437,0.97,-0.01,-3.29,3.43
28.374483823776245,-1.18,0.23,-1.27,1.74
28.405983924865723,-1.67,1.49,0.38,2.27
28.407729864120483,-1.58,2.16,-0.29,2.69
28.409313917160034,-1.46,1.84,-1.68,2.88
28.414268016815186,-0.73,1.08,-1.76,2.19
28.424413919448853,-0.08,0.29,-1.25,1.28
28.434365034103394,0.04,0.52,-0.44,0.68
28.44471001625061,0.0,1.24,0.15,1.24
28.454367876052856,-0.19,1.78,-0.44,1.84
28.467230081558228,-0.33,2.51,-1.42,2.9
28.47485089302063,-0.2,3.76,-2.48,4.5
28.505199909210205,-0.03,4.75,-3.55,5.93
28.506789922714233,-0.03,3.64,-3.11,4.78
28.508208990097046,-1.42,7.6,-0.13,7.73
28.514819860458374,-1.11,10.92,-0.53,10.98
28.524823904037476,-2.6,8.03,-0.21,8.44
28.535209894180298,-2.92,4.8,-1.43,5.79
28.54517388343811,-3.31,2.79,-2.02,4.77
28.555274963378906,-3.69,3.92,-2.31,5.85
28.567997932434082,-3.7,7.17,-2.01,8.31
28.575249910354614,-6.65,5.32,-2.17,8.78
28.607911825180054,-7.86,2.86,-1.62,8.51
28.610440969467163,-8.43,1.93,-0.58,8.66
28.612016916275024,-8.9,1.94,-4.35,10.09
28.615413904190063,-9.48,1.07,-5.69,11.1
28.62555694580078,-10.09,-1.28,-3.93,10.9
28.635534048080444,-10.32,-2.78,-2.18,10.9
28.64588499069214,-10.38,-2.28,-1.95,10.8
28.656140089035034,-10.4,-1.18,-1.89,10.63
28.66819190979004,-10.3,-0.95,-1.22,10.41
28.67621898651123,-10.21,-1.19,-0.03,10.27
28.70638394355774,-9.72,-0.76,0.62,9.76
28.708899974822998,-8.59,-0.33,0.23,8.59
28.710490942001343,-7.53,-0.66,-0.31,7.56
28.71592879295349,-7.02,-1.05,-0.73,7.13
28.726260900497437,-6.62,-1.19,-1.35,6.86
28.736101865768433,-6.14,-0.91,-1.69,6.43
28.746289014816284,-5.79,-0.26,-1.92,6.1
28.75655698776245,-5.41,0.78,-2.25,5.91
28.769073963165283,-4.45,1.54,-2.7,5.42
28.776803016662598,-3.1,1.61,-2.93,4.55
28.80816388130188,-1.78,1.41,-3.16,3.89
28.81064486503601,-0.65,1.42,-3.61,3.93
28.812219858169556,0.41,1.44,-4.53,4.77
28.816574811935425,1.25,1.16,-5.42,5.68
28.826453924179077,1.78,0.46,-5.76,6.04
28.83678412437439,2.27,-0.21,-5.46,5.91
28.846987009048462,4.67,2.3,-5.19,7.35
28.859648942947388,5.23,4.1,-5.53,8.64
28.86884903907776,5.39,1.71,-6.8,8.84
28.87764286994934,5.38,-0.65,-3.76,6.59
28.90720295906067,5.0,-3.1,-0.82,5.93
28.909677982330322,4.54,-4.41,0.36,6.33
28.911253929138184,4.29,-4.4,0.13,6.14
28.916996955871582,5.73,-2.38,-1.87,6.48
28.927424907684326,8.0,-0.33,-2.24,8.31
28.93734097480774,9.15,-0.57,-0.77,9.2
28.947444915771484,9.42,-1.91,-0.92,9.65
28.957289934158325,10.01,-3.3,-0.65,10.55
28.971608877182007,10.97,-3.38,0.04,11.47
28.977434873580933,12.06,-2.59,0.02,12.33
29.009888887405396,14.42,0.58,0.19,14.43
29.012359857559204,17.13,3.44,0.02,17.47
29.013953924179077,11.5,-7.81,2.63,14.14
29.017488956451416,10.97,-15.01,6.24,19.61
29.027704000473022,7.47,-17.1,4.57,19.21
29.037977933883667,1.99,-16.51,9.22,19.01
29.04795479774475,2.49,0.94,21.91,22.07
29.05834984779358,-0.21,13.04,2.64,13.3
29.071332931518555,2.78,5.28,-4.33,7.37
29.07836890220642,5.3,-5.86,5.24,9.48
29.10775399208069,6.44,-9.61,1.92,11.72
29.110233068466187,5.65,-5.24,-5.54,9.49
29.111796140670776,0.48,0.18,-5.3,5.32
29.1180579662323,-2.8,3.38,-1.56,4.65
29.128515005111694,-3.4,3.81,-0.99,5.2
29.138235807418823,-3.38,3.01,-1.04,4.64
29.14860987663269,-1.39,1.69,-1.05,2.42
29.161463975906372,0.79,-0.25,-1.35,1.58
29.1686909198761,0.88,-0.75,-0.23,1.17
29.181525945663452,0.53,-0.53,1.2,1.41
29.210696935653687,0.29,-0.32,0.93,1.02
29.212536096572876,0.33,0.43,0.07,0.54
29.21406102180481,-0.35,1.04,-0.1,1.1
29.218817949295044,-0.5,1.11,-0.41,1.28
29.22876811027527,-0.53,1.22,-0.36,1.37
29.239177942276,-0.6,1.19,-0.17,1.34
29.249097108840942,-0.46,1.11,-0.25,1.22
29.259001970291138,-0.31,1.0,-0.19,1.06
29.273319959640503,-0.19,0.85,0.15,0.88
29.278953790664673,-0.07,0.6,0.81,1.01
29.311949014663696,-0.22,0.72,1.01,1.25
29.314450979232788,-0.39,1.07,0.6,1.28
29.31601881980896,-0.77,1.49,-0.41,1.72
29.31919503211975,-0.44,2.41,-1.17,2.71
29.329585790634155,0.03,3.57,-1.82,4.0
29.339537858963013,-0.15,4.76,-0.83,4.83
29.349703073501587,-0.21,5.61,1.32,5.76
29.360157012939453,-0.39,6.48,3.01,7.15
29.37368607521057,-0.5,6.93,2.31,7.32
29.380162954330444,0.36,8.56,0.96,8.62
29.411239862442017,1.75,11.49,0.33,11.62
29.413758039474487,2.98,15.65,-2.33,16.1
29.415343046188354,3.05,18.88,-5.3,19.84
29.420149087905884,1.31,18.68,-5.85,19.61
29.430190801620483,-1.7,13.84,-3.17,14.29
29.44015097618103,-3.27,10.12,-2.69,10.97
29.450257062911987,-4.02,5.78,-5.52,8.94
29.460495948791504,-5.25,-0.7,-6.24,8.18
29.474157094955444,-7.99,-2.53,-5.05,9.78
29.48070502281189,-11.25,-3.67,-2.58,12.11
29.511504888534546,-11.12,-1.21,1.12,11.24
29.514007806777954,-9.61,3.05,0.23,10.08
29.515626907348633,-9.63,3.98,-1.66,10.55
29.52062702178955,-10.21,2.88,-1.68,10.74
29.530786991119385,-10.44,1.16,-1.02,10.55
29.54084610939026,-10.34,0.96,0.75,10.41
29.55073595046997,-9.92,0.79,0.65,9.97
29.560905933380127,-9.87,0.35,0.85,9.91
29.57408595085144,-9.47,0.87,1.28,9.59
29.581466913223267,-8.73,1.93,1.72,9.1
29.613739013671875,-7.78,3.22,1.87,8.62
29.6163330078125,-6.54,4.83,1.26,8.22
29.61790895462036,-5.15,6.25,0.22,8.1
29.62089991569519,-4.06,6.68,0.07,7.81
29.6313898563385,-3.12,6.12,0.99,6.94
29.64125084877014,-2.25,5.41,1.55,6.06
29.651416063308716,-1.35,5.05,1.88,5.55
29.66143012046814,-0.52,4.72,3.14,5.69
29.674346923828125,0.21,4.35,3.78,5.76
29.681782960891724,0.83,3.55,3.78,5.25
29.7133469581604,1.36,2.63,2.86,4.11
29.715856790542603,1.8,1.82,1.29,2.86
29.71745491027832,2.29,1.16,0.04,2.56
29.72150206565857,2.78,0.64,-0.05,2.85
29.73177695274353,3.45,0.45,0.5,3.51
29.74187207221985,4.17,0.58,0.78,4.28
29.751621961593628,5.27,1.01,0.18,5.36
29.764745950698853,7.28,0.83,-0.27,7.33
29.774637937545776,7.66,-0.76,-0.2,7.7
