time,ax,ay,az,atotal
0.0028290748596191406,0.4,0.22,-0.19,0.49
0.0037941932678222656,0.48,0.19,-0.51,0.72
0.004683971405029297,0.62,0.12,-0.99,1.17
0.03139305114746094,0.68,0.24,-0.93,1.17
0.03432798385620117,0.73,0.22,-0.55,0.94
0.03614306449890137,0.8,0.32,-0.44,0.96
0.05867195129394531,0.8,0.45,-0.58,1.08
0.06311225891113281,0.7,0.55,-0.72,1.14
0.06961822509765625,0.62,0.55,-0.72,1.09
0.07343626022338867,0.61,0.5,-0.67,1.03
0.10413908958435059,0.61,0.58,-0.69,1.08
0.10500097274780273,0.57,0.74,-0.78,1.21
0.10588598251342773,0.68,0.64,-0.92,1.31
0.12637996673583984,0.89,0.73,-1.18,1.64
0.12934112548828125,0.9,0.84,-1.34,1.81
0.13484525680541992,0.83,0.78,-1.38,1.78
0.14433717727661133,0.8,0.83,-1.43,1.83
0.15445709228515625,0.76,0.96,-1.33,1.8
0.16440510749816895,0.82,1.12,-1.43,1.99
0.17439007759094238,0.9,0.93,-1.56,2.02
0.1998591423034668,0.59,0.77,-1.88,2.11
0.20105910301208496,0.46,0.75,-1.94,2.13
0.20296192169189453,0.46,0.77,-1.71,1.93
0.22774410247802734,0.35,0.7,-2.09,2.23
0.23036623001098633,0.3,0.53,-2.51,2.58
0.2331831455230713,0.39,0.56,-2.9,2.97
0.24576210975646973,0.38,0.44,-3.26,3.31
0.2547430992126465,0.43,0.12,-3.73,3.75
0.26473522186279297,0.62,-0.53,-4.16,4.23
0.2749662399291992,1.06,-1.12,-4.82,5.06
0.29923510551452637,1.31,-1.79,-5.32,5.76
0.3007979393005371,1.45,-2.7,-5.29,6.11
0.30344724655151367,1.62,-3.62,-5.12,6.47
0.3260989189147949,1.99,-4.23,-4.87,6.75
0.3275871276855469,2.29,-4.29,-4.65,6.72
0.33379316329956055,2.38,-3.47,-4.79,6.37
0.3458242416381836,2.3,-2.21,-4.72,5.69
0.3550701141357422,2.07,-1.12,-5.33,5.82
0.3658781051635742,1.74,0.48,-4.73,5.06
0.3751680850982666,1.98,0.41,-2.78,3.43
0.39670515060424805,1.92,-0.09,-2.02,2.78
0.397874116897583,1.15,-0.21,-1.92,2.24
0.4041261672973633,0.15,-0.35,-1.38,1.43
0.4192500114440918,-0.68,-1.12,-1.34,1.87
0.42559814453125,-1.4,-1.87,-2.15,3.17
0.4356369972229004,-2.1,-1.89,-1.33,3.12
0.4461040496826172,-2.62,-2.07,0.13,3.34
0.4559340476989746,-2.94,-2.21,1.1,3.83
0.4662480354309082,-3.45,-2.07,1.44,4.27
0.4765000343322754,-3.82,-2.08,1.36,4.55
0.49934911727905273,-3.95,-2.46,0.78,4.71
0.5005180835723877,-3.97,-2.86,0.03,4.89
0.5046062469482422,-3.71,-3.32,-0.11,4.97
0.5207281112670898,-3.16,-3.35,0.65,4.65
0.5259630680084229,-2.63,-2.71,1.44,4.04
0.5362811088562012,-2.05,-1.83,1.84,3.3
0.546576976776123,-1.69,-0.85,1.34,2.31
0.5566830635070801,-1.37,-0.42,0.76,1.62
0.5666170120239258,-0.94,-0.63,-0.12,1.13
0.5766639709472656,-0.56,-1.05,-0.91,1.49
0.5985860824584961,-0.18,-1.25,-1.7,2.11
0.5997021198272705,0.14,-1.52,-2.41,2.85
0.6050851345062256,0.48,-1.88,-2.57,3.22
0.6201682090759277,1.28,-2.23,-2.0,3.25
0.6266801357269287,4.86,-3.48,-2.1,6.33
0.6368510723114014,9.63,-2.99,-2.85,10.47
0.6471850872039795,7.9,-0.8,4.13,8.95
0.6571581363677979,1.68,-0.09,13.15,13.25
0.6676270961761475,0.88,0.96,3.09,3.35
0.6773719787597656,-0.27,0.58,-3.67,3.72
0.7051291465759277,1.7,-2.82,-2.21,3.96
0.7066230773925781,1.1,-1.8,-2.71,3.43
0.7077090740203857,-1.26,-2.07,-2.87,3.75
0.7164239883422852,-2.89,-1.3,-1.71,3.6
0.7277779579162598,-1.97,-2.77,-1.58,3.74
0.7377450466156006,-1.41,-2.81,-1.87,3.65
0.7479541301727295,-1.12,-0.29,3.7,3.87
0.7576470375061035,-0.43,0.9,-0.02,0.99
0.7676949501037598,-0.09,-3.04,-1.66,3.46
0.7785930633544922,-1.4,-2.24,-2.45,3.6
0.8038291931152344,-1.44,-1.19,0.09,1.87
0.8050942420959473,-1.76,-0.95,3.15,3.73
0.8062050342559814,-3.2,-2.03,5.58,6.74
0.8219451904296875,-4.93,-3.31,5.61,8.16
0.8279871940612793,-5.77,-3.97,4.28,8.2
0.8380370140075684,-6.95,-3.68,4.51,9.06
0.8485250473022461,-9.38,-2.95,4.97,11.01
0.8581531047821045,-12.35,-0.95,7.47,14.46
0.8682680130004883,-10.18,-1.71,11.03,15.1
0.8795652389526367,-6.66,1.15,8.25,10.66
0.9046292304992676,-2.25,4.67,1.56,5.41
0.9060471057891846,2.5,6.22,-2.69,7.22
0.9068541526794434,5.11,3.93,-3.28,7.23
0.9200460910797119,4.39,-0.26,-0.43,4.41
0.9287152290344238,1.22,-1.64,2.4,3.15
0.9387481212615967,-3.08,-0.2,1.43,3.4
0.9489130973815918,-3.61,2.63,-1.2,4.62
0.958881139755249,-0.79,5.5,-4.06,6.88
0.9689741134643555,1.61,5.07,-6.99,8.78
0.9795479774475098,2.33,3.17,-9.83,10.58
1.0034821033477783,3.22,0.74,-10.79,11.28
1.004457950592041,1.91,-1.59,-5.24,5.79
1.0072741508483887,0.4,-3.57,-1.04,3.73
1.0191690921783447,1.16,-5.48,-0.41,5.61
1.0291941165924072,1.43,-5.99,-0.11,6.15
1.0390410423278809,0.51,-4.39,-1.16,4.56
1.048816204071045,-0.43,-3.07,0.18,3.1
1.0591082572937012,-1.09,-2.47,1.4,3.04
1.0696601867675781,-1.68,-2.07,1.77,3.2
1.0795412063598633,-2.14,-1.88,1.33,3.14
1.1030311584472656,-2.55,-2.09,1.31,3.54
1.1040921211242676,-2.44,-1.98,1.57,3.51
1.1080379486083984,-1.51,-0.46,0.29,1.6
1.1191580295562744,-0.4,1.7,-1.77,2.48
1.1302299499511719,0.41,3.7,-2.59,4.53
1.140286922454834,1.07,5.17,-3.21,6.17
1.1498441696166992,1.44,6.05,-4.01,7.39
1.1599421501159668,1.25,6.59,-5.1,8.42
1.1701171398162842,0.97,7.19,-5.46,9.08
1.180333137512207,1.05,7.72,-5.1,9.31
1.2032380104064941,1.65,7.78,-3.64,8.74
1.2042169570922852,2.16,7.59,-0.98,7.95
1.2085132598876953,1.91,7.7,3.13,8.52
1.2187681198120117,1.71,7.42,3.99,8.59
1.2308049201965332,1.47,6.11,2.48,6.75
1.2402870655059814,0.87,5.24,2.65,5.93
1.2504401206970215,0.53,4.97,2.93,5.79
1.2608709335327148,0.63,4.37,1.65,4.71
1.2708430290222168,0.77,3.71,0.34,3.8
1.2814159393310547,0.86,3.38,-0.06,3.48
1.3080739974975586,1.09,3.12,-0.08,3.3
1.3092041015625,1.43,3.01,-0.31,3.34
1.3100650310516357,1.62,3.25,-0.17,3.63
1.319507122039795,1.59,3.62,-0.05,3.95
1.330909252166748,1.58,4.05,-1.04,4.46
1.341203212738037,0.93,4.04,-0.47,4.17
1.3511152267456055,0.27,3.3,1.3,3.55
1.3609919548034668,0.56,2.59,2.85,3.89
1.3711121082305908,1.17,2.48,4.03,4.87
1.3816161155700684,1.79,2.47,4.33,5.29
1.4074840545654297,2.04,1.97,3.91,4.83
1.408318042755127,1.9,1.61,2.8,3.74
1.4095940589904785,1.3,2.27,2.5,3.61
1.419917106628418,1.08,3.34,0.91,3.62
1.4318242073059082,0.68,3.87,0.31,3.94
1.4416441917419434,-0.2,3.99,1.02,4.12
1.4515771865844727,-1.0,3.3,1.17,3.64
1.4624419212341309,1.65,-2.93,3.99,5.21
1.4715120792388916,3.91,-7.45,11.06,13.89
1.481889247894287,2.08,-3.95,8.39,9.5
1.5062689781188965,-0.22,-1.52,-1.96,2.49
1.507228136062622,-1.07,-2.51,-6.64,7.17
1.5102062225341797,0.02,-1.91,-2.17,2.89
1.5202441215515137,1.25,-0.72,3.64,3.91
1.5321900844573975,-0.2,0.15,3.82,3.82
1.5420680046081543,-1.18,0.57,-0.75,1.5
1.5525951385498047,-0.49,1.19,-1.9,2.29
1.5626392364501953,-0.17,2.14,1.03,2.38
1.5725691318511963,-0.7,2.86,2.88,4.11
1.5824511051177979,-1.2,3.98,2.5,4.85
1.608860969543457,-1.2,4.05,1.59,4.51
1.609760046005249,-1.04,3.42,0.06,3.57
1.6105961799621582,-1.53,2.51,-0.67,3.01
1.621027946472168,-2.07,2.24,0.01,3.05
1.6327509880065918,-2.34,0.55,2.8,3.69
1.6429619789123535,-2.82,1.79,0.57,3.38
1.6526200771331787,-7.47,2.0,-5.66,9.58
1.663572072982788,-5.75,-3.72,8.07,10.58
1.6731071472167969,-2.91,-8.38,2.0,9.09
1.6831591129302979,-4.53,-10.17,0.51,11.14
1.7144091129302979,-5.77,-8.09,1.49,10.04
1.7153520584106445,-6.32,-7.7,-0.8,9.99
1.7162442207336426,0.49,-7.78,7.77,11.0
1.737112045288086,-0.16,0.91,4.36,4.45
1.740128993988037,-1.82,8.37,1.37,8.67
1.7506232261657715,1.88,7.94,0.43,8.17
1.7539072036743164,5.15,3.84,-0.69,6.46
1.7673821449279785,6.2,1.11,1.59,6.49
1.77288818359375,3.69,1.53,2.77,4.86
1.7844581604003906,1.28,4.16,3.05,5.31
1.8053679466247559,-0.43,7.37,3.06,7.99
1.8064980506896973,-0.47,9.18,1.8,9.36
1.811763048171997,2.9,2.47,-1.29,4.02
1.821977138519287,4.44,-4.01,-2.43,6.45
1.832165241241455,2.01,-6.04,0.48,6.38
1.8440699577331543,-0.02,-0.94,1.15,1.48
1.8538520336151123,0.55,1.86,0.38,1.97
1.8646159172058105,-0.31,-1.47,-0.59,1.61
1.8742899894714355,-0.18,-1.26,-0.72,1.46
1.884037971496582,-1.06,-0.4,0.28,1.16
1.9123001098632812,-1.35,-0.3,0.01,1.38
1.9132161140441895,-1.1,4.33,-0.77,4.53
1.9140350818634033,-3.19,0.1,-1.59,3.56
1.922853946685791,-4.36,-7.07,0.64,8.33
1.9328861236572266,-2.86,-10.78,1.8,11.29
1.944831132888794,1.51,-5.08,-1.02,5.39
1.9545621871948242,0.4,-1.67,-2.1,2.71
1.9648761749267578,-0.97,-1.35,-2.22,2.77
1.9742941856384277,-0.94,-1.9,-0.89,2.29
1.984807014465332,-0.98,-0.88,-0.99,1.64
2.0110702514648438,-1.73,-1.37,-2.14,3.07
2.0119540691375732,-1.55,-0.81,-2.36,2.93
2.012932062149048,0.46,-0.43,-0.85,1.05
2.0250401496887207,4.38,0.18,2.24,4.92
2.0345911979675293,3.99,2.14,2.74,5.29
2.0451459884643555,1.61,1.87,0.39,2.49
2.0548651218414307,0.78,0.02,-0.58,0.97
2.065235137939453,1.3,0.73,-0.38,1.53
2.075094223022461,1.03,1.86,1.18,2.43
2.085097074508667,0.38,2.97,1.14,3.2
2.1116080284118652,0.57,4.24,1.11,4.41
2.112575054168701,-0.7,2.15,-1.64,2.79
2.113729953765869,-1.48,0.24,0.57,1.6
2.1239089965820312,-1.14,1.69,1.11,2.32
2.1353039741516113,-1.41,2.23,0.21,2.64
2.1458449363708496,-0.81,-1.35,0.53,1.66
2.155683994293213,-3.44,-4.27,-2.63,6.08
2.165943145751953,-3.78,0.31,-3.18,4.94
2.1757259368896484,-0.83,-2.47,2.0,3.28
2.1856961250305176,-0.72,-2.58,1.88,3.27
2.2108170986175537,0.16,-0.15,1.11,1.13
2.2118101119995117,0.47,-1.07,1.52,1.91
2.2141799926757812,0.45,-0.65,1.04,1.3
2.224506139755249,2.09,0.03,-0.03,2.09
2.2361831665039062,2.69,0.13,-0.55,2.74
2.246117115020752,3.54,-0.79,0.09,3.62
2.2559421062469482,3.28,-0.21,-0.18,3.29
2.266127109527588,1.99,1.61,-2.05,3.27
2.276431083679199,1.7,4.71,-0.83,5.07
2.2863171100616455,1.81,5.46,-0.76,5.8
2.311415195465088,2.42,-0.19,-0.12,2.43
2.312556266784668,2.88,-0.45,-2.09,3.58
2.314755916595459,-0.46,1.95,-0.85,2.17
2.3250391483306885,-2.57,1.03,-0.9,2.91
2.3366501331329346,-1.88,-0.35,-0.09,1.91
2.3466949462890625,-0.46,0.53,-0.35,0.78
2.356339931488037,0.83,1.94,0.0,2.11
2.366619110107422,1.37,2.21,0.01,2.6
2.376591205596924,0.79,2.64,0.66,2.83
2.3872101306915283,0.67,3.33,0.76,3.48
2.4126200675964355,0.28,3.06,1.13,3.27
2.413957118988037,-0.44,2.35,0.24,2.4
2.4154040813446045,-0.99,1.1,-0.61,1.6
2.4359850883483887,-0.71,-2.53,-0.71,2.72
2.439864158630371,-0.8,-4.8,-0.87,4.94
2.450439929962158,-1.44,-5.89,-1.01,6.14
2.455902099609375,-2.18,-6.76,-0.52,7.12
2.467250108718872,-2.64,-4.07,-0.44,4.87
2.4771389961242676,-0.71,-3.49,0.0,3.56
2.4871511459350586,1.88,-1.96,0.03,2.71
2.5113911628723145,3.21,-0.95,-0.3,3.36
2.5125200748443604,3.39,-0.98,-0.62,3.58
2.5159990787506104,2.36,-0.79,-1.21,2.76
2.526310920715332,1.41,-0.66,-1.7,2.3
2.537874221801758,1.29,0.48,-1.67,2.16
2.5482680797576904,1.2,7.33,-1.97,7.68
2.558032989501953,1.03,6.53,-0.36,6.62
2.56795597076416,2.44,-1.05,0.72,2.75
2.57822322845459,0.6,0.1,-1.26,1.39
2.588311195373535,-1.84,1.57,-1.88,3.06
2.61495304107666,-2.79,4.1,-4.18,6.48
2.6160941123962402,-1.7,7.99,-9.27,12.35
2.6169161796569824,-3.77,-2.37,4.18,6.1
2.640052080154419,-1.37,-13.11,8.52,15.69
2.6441731452941895,0.56,-11.61,3.65,12.18
2.6503262519836426,-1.4,-2.32,2.73,3.84
2.6567821502685547,-4.6,3.45,1.78,6.01
2.6683239936828613,-4.41,-0.02,1.81,4.76
2.678631067276001,-3.43,0.27,0.73,3.51
2.6886649131774902,-1.83,0.81,0.62,2.09
2.714660167694092,0.58,-0.25,0.67,0.92
2.7156829833984375,2.54,1.14,0.48,2.82
2.717060089111328,2.76,3.35,1.41,4.56
2.737582206726074,1.49,5.09,-0.17,5.3
2.738884925842285,0.35,0.69,-3.71,3.78
2.7515881061553955,0.73,-5.06,-2.75,5.8
2.7590231895446777,0.58,-5.11,-0.91,5.22
2.7688002586364746,-0.46,0.11,0.86,0.98
2.7800259590148926,-0.06,3.24,1.8,3.7
2.789107084274292,0.84,2.57,1.26,2.98
2.81489896774292,0.46,0.25,0.88,1.02
2.815993070602417,-0.82,-0.98,0.68,1.44
2.8179659843444824,-1.31,-0.85,0.62,1.68
2.840085029602051,-0.87,-0.39,1.29,1.6
2.8438539505004883,-0.57,-0.05,1.12,1.25
2.8509390354156494,-0.8,0.42,0.7,1.14
2.859182119369507,-1.0,0.63,0.8,1.42
2.8693690299987793,-0.82,0.65,1.22,1.6
2.880474090576172,-0.33,0.22,0.44,0.59
2.8900160789489746,0.49,-0.58,0.71,1.03
2.9164481163024902,0.99,-0.63,1.37,1.8
2.91748309135437,0.53,-0.64,-0.53,0.98
2.9182960987091064,-0.5,-1.41,-0.8,1.69
2.9372310638427734,-1.71,-1.72,1.37,2.78
2.938530921936035,-2.76,-1.09,1.36,3.26
2.951946258544922,-2.95,-0.22,1.08,3.14
2.9599409103393555,-1.73,0.44,0.67,1.9
2.9699931144714355,0.63,0.39,-0.14,0.75
2.9811980724334717,3.03,0.07,-0.5,3.07
2.990239143371582,5.17,0.02,-2.34,5.67
3.018388032913208,7.96,0.15,-4.96,9.38
3.019503116607666,10.56,0.56,-6.91,12.63
3.020336151123047,10.11,0.49,-5.45,11.49
3.0393872261047363,5.81,0.74,-2.31,6.29
3.042943000793457,1.37,0.37,-2.66,3.01
3.049133062362671,-1.08,-0.57,-1.04,1.6
3.0613479614257812,-2.24,-1.2,0.94,2.7
3.070457935333252,-2.76,-1.67,2.34,3.98
3.0821380615234375,-3.19,-1.86,3.18,4.87
3.090817928314209,-3.38,-1.54,2.37,4.4
3.118117094039917,-2.65,-0.62,1.35,3.03
3.119202136993408,-0.73,0.31,0.68,1.04
3.1200430393218994,1.74,0.24,0.31,1.78
3.1373510360717773,3.23,-0.58,-0.79,3.37
3.1396310329437256,2.79,-0.8,-2.19,3.63
3.151327133178711,1.0,-0.37,-1.87,2.15
3.1611170768737793,-1.03,0.04,-0.78,1.29
3.1713171005249023,-2.64,0.14,0.34,2.66
3.181222915649414,-3.68,0.36,1.65,4.04
3.1913230419158936,-3.87,0.91,2.19,4.53
3.2191519737243652,-2.78,1.61,2.46,4.04
3.220802068710327,-1.02,1.45,1.49,2.31
3.2216601371765137,0.34,0.89,-0.01,0.95
3.2392520904541016,0.86,0.81,-1.18,1.66
3.243425130844116,0.53,1.09,-1.45,1.88
3.2513022422790527,-0.24,1.49,-0.5,1.58
3.261730194091797,-1.2,1.67,0.45,2.1
3.2718019485473633,-1.66,1.81,-0.25,2.46
3.2820351123809814,-1.3,1.91,-0.17,2.31
3.292384147644043,-0.6,1.54,-0.26,1.67
3.3187222480773926,-0.1,1.39,-0.72,1.56
3.319801092147827,0.34,1.52,-0.56,1.65
3.3205509185791016,1.03,1.4,-0.45,1.79
3.3370680809020996,1.72,0.89,-0.54,2.01
3.342219114303589,2.07,0.31,-0.57,2.16
3.3521881103515625,1.95,-0.09,-0.65,2.05
3.3628692626953125,1.45,-0.38,-0.41,1.55
3.372361183166504,0.52,-0.76,-0.37,0.99
3.383091926574707,-0.29,-0.96,-0.66,1.2
3.3924710750579834,-0.22,-0.82,-0.56,1.01
3.4205100536346436,0.66,-0.87,-0.72,1.3
3.421553134918213,1.27,-1.03,-1.39,2.14
3.422624111175537,1.33,-1.05,-1.28,2.12
3.4367921352386475,0.82,-1.2,-0.52,1.54
3.4428300857543945,0.3,-1.01,-0.27,1.08
3.4531092643737793,0.56,-0.49,-0.38,0.83
3.46323299407959,1.51,-0.19,-1.1,1.87
3.4729442596435547,2.23,-0.22,-2.08,3.05
3.4831831455230713,2.08,0.22,-1.94,2.85
3.4928512573242188,1.02,0.01,-1.39,1.72
3.5205812454223633,-0.05,0.49,-0.92,1.04
3.521860122680664,-0.54,1.44,-0.87,1.76
3.5226869583129883,-0.1,1.71,-0.92,1.94
3.5337400436401367,0.7,1.54,-1.25,2.1
3.543478012084961,1.32,1.56,-1.24,2.39
3.553278923034668,1.75,1.86,-1.05,2.76
3.5637402534484863,2.02,2.67,-0.62,3.4
3.5735549926757812,2.36,3.67,-0.28,4.37
3.5837950706481934,2.96,4.1,-0.26,5.06
3.5938780307769775,3.54,4.44,-0.38,5.69
3.622281074523926,3.96,4.48,-0.8,6.03
3.623286247253418,4.26,4.75,-1.47,6.54
3.624135971069336,5.25,5.25,-2.37,7.79
3.632862091064453,6.35,5.65,-3.02,9.02
3.6427202224731445,7.52,6.05,-3.82,10.38
3.653749942779541,8.69,6.47,-3.52,11.39
3.6642980575561523,9.65,6.58,-2.79,12.0
3.674018144607544,10.09,6.62,-2.46,12.31
3.6844239234924316,9.74,7.23,-1.57,12.23
3.6939501762390137,8.18,7.94,-1.57,11.5
3.7207632064819336,6.44,9.12,-2.6,11.46
3.7218809127807617,6.11,10.71,-3.68,12.86
3.7227890491485596,6.88,11.48,-5.24,14.37
3.7349209785461426,7.96,10.21,-4.93,13.85
3.7428879737854004,7.24,7.5,-4.15,11.22
3.7545809745788574,5.06,5.34,-2.24,7.69
3.764827251434326,2.51,4.15,-2.7,5.55
3.77447509765625,0.94,3.44,-4.45,5.7
3.784701108932495,2.72,4.23,-6.61,8.3
3.7946341037750244,7.92,5.15,-4.71,10.55
3.824911117553711,13.01,4.77,-0.86,13.88
3.8262100219726562,15.92,3.4,-1.23,16.32
3.8270580768585205,15.99,0.75,-5.23,16.84
3.8333561420440674,13.51,-1.63,-6.51,15.08
3.8456220626831055,10.79,-1.8,-5.72,12.34
3.854907989501953,9.03,-1.34,-3.99,9.96
3.865495204925537,8.03,-0.95,-1.97,8.32
3.8754351139068604,7.18,-0.3,-0.54,7.2
3.8853302001953125,6.17,0.69,0.23,6.21
3.8957161903381348,5.11,1.63,1.3,5.51
3.9240970611572266,3.98,2.14,2.33,5.08
3.9251279830932617,2.73,2.27,2.68,4.44
3.9259610176086426,1.55,2.34,2.82,3.97
3.9339680671691895,0.63,2.41,3.06,3.94
3.944526195526123,0.21,2.44,2.98,3.85
3.955662250518799,0.24,2.29,2.48,3.38
3.9659180641174316,0.23,2.21,2.08,3.04
3.976271152496338,-0.04,2.57,1.82,3.14
3.986173152923584,-0.88,3.62,1.8,4.13
3.9966702461242676,-2.55,4.95,2.03,5.92
4.024959087371826,-4.69,6.0,1.86,7.83
4.025890111923218,-6.55,6.1,1.62,9.09
4.026732921600342,-7.14,6.16,1.76,9.59
4.032364130020142,-8.49,6.0,1.22,10.46
4.036699056625366,-9.98,6.88,1.44,12.2
4.05049204826355,-11.71,7.98,0.76,14.19
4.058640003204346,-13.86,8.07,0.07,16.03
4.068555116653442,-16.66,7.29,-0.12,18.18
4.081241130828857,-19.6,5.67,-0.74,20.41
4.088536262512207,-22.37,4.31,0.07,22.78
4.098977088928223,-24.4,2.15,1.74,24.55
4.115993976593018,-25.64,-0.2,2.55,25.76
4.117215156555176,-24.9,-1.29,2.35,25.04
4.127246141433716,-20.74,-1.11,1.35,20.81
4.137290954589844,-16.35,0.21,-0.71,16.36
4.149596214294434,-13.02,1.22,-2.06,13.23
4.1588311195373535,-11.63,0.78,-2.78,11.98
4.169155120849609,-8.12,0.98,-1.69,8.35
4.1798341274261475,-0.7,2.95,5.87,6.6
4.189438104629517,6.68,4.85,7.4,11.08
4.1997761726379395,9.34,6.45,-1.65,11.46
4.224363088607788,8.07,9.03,-5.24,13.19
4.225746154785156,4.59,11.49,0.87,12.4
4.22799825668335,-1.82,7.69,-0.67,7.93
4.239499092102051,-7.17,0.52,-0.68,7.22
4.24963903427124,-8.26,-2.86,0.29,8.74
4.2593560218811035,-9.28,-3.62,-0.46,9.97
4.269851207733154,-10.94,-3.08,-0.22,11.36
4.2803730964660645,-10.88,-0.74,4.28,11.71
4.290366172790527,-9.6,3.02,5.94,11.68
4.300214052200317,-7.81,5.87,2.76,10.15
4.328890085220337,-5.66,5.01,0.82,7.6
4.3303680419921875,-3.54,2.01,-0.27,4.07
4.3311381340026855,-1.13,0.4,-0.69,1.38
4.342364072799683,1.25,0.11,-1.89,2.26
4.350013256072998,3.16,0.42,-2.81,4.24
4.360405921936035,4.52,0.69,-3.61,5.82
4.370303153991699,5.17,0.73,-3.56,6.31
4.381687164306641,4.36,0.4,-1.76,4.71
4.390268087387085,1.48,0.11,-0.7,1.64
4.400829076766968,-1.28,0.59,0.17,1.41
4.42329216003418,-2.43,1.08,0.82,2.78
4.424296140670776,-2.28,1.03,0.32,2.52
4.429105043411255,-1.3,0.59,-0.12,1.43
4.439198970794678,0.04,0.17,-0.2,0.26
4.451121091842651,1.46,0.04,-1.24,1.91
4.460822105407715,2.64,0.49,-1.01,2.86
4.471116065979004,2.8,0.97,-0.81,3.07
4.481090068817139,1.97,1.0,-0.84,2.36
4.490878105163574,0.99,0.61,-0.41,1.23
4.50123405456543,0.38,0.14,0.34,0.52
4.522180080413818,0.1,0.01,0.37,0.38
4.523118019104004,-0.04,0.12,-0.22,0.25
4.529558181762695,-0.01,0.42,-0.73,0.84
4.541553974151611,0.11,0.65,-1.39,1.53
4.5507800579071045,0.15,0.76,-1.66,1.83
4.561509132385254,0.41,0.65,-1.77,1.92
4.572204113006592,1.06,0.14,-1.78,2.07
4.584959983825684,3.12,-0.3,-1.26,3.37
4.594756126403809,4.09,0.2,-1.09,4.23
4.604793071746826,4.88,0.78,-0.77,5.0
4.634734153747559,5.46,1.28,-0.99,5.69
4.63600492477417,5.64,1.7,-1.39,6.05
4.636722087860107,5.27,2.05,-1.64,5.88
4.656337261199951,4.46,2.63,-2.08,5.57
4.659805059432983,3.4,3.25,-2.36,5.26
4.66513204574585,2.46,3.76,-2.26,5.02
4.674830913543701,2.06,4.39,-2.63,5.51
4.684945106506348,2.79,5.07,-3.1,6.56
4.694888114929199,4.74,5.48,-3.86,8.2
4.705222129821777,6.99,6.04,-4.68,10.35
4.730770111083984,8.81,6.89,-5.33,12.38
4.731816053390503,10.37,8.01,-6.4,14.58
4.733788013458252,11.87,8.75,-6.76,16.22
4.75660514831543,12.44,8.39,-5.68,16.04
4.7601141929626465,9.63,7.23,-5.3,13.15
4.768008232116699,4.79,6.98,-7.39,11.23
4.775100231170654,1.5,8.98,-7.84,12.01
4.785460948944092,1.41,11.34,-5.42,12.64
4.795698165893555,2.28,10.0,-5.86,11.81
4.806033134460449,2.58,5.8,-4.19,7.6
4.836641073226929,3.26,2.82,-4.15,5.98
4.837881088256836,5.76,2.84,-3.07,7.11
4.838735103607178,8.25,2.53,-4.54,9.75
4.856326103210449,10.22,1.38,-4.99,11.45
4.858613014221191,11.85,0.42,-5.2,12.94
4.865447044372559,12.83,-0.86,-5.5,13.98
4.876115083694458,12.61,-2.39,-5.6,14.0
4.885958194732666,11.14,-3.49,-5.35,12.84
4.897013187408447,9.23,-3.96,-5.63,11.51
4.906048059463501,7.9,-3.74,-5.66,10.41
4.933764934539795,7.58,-2.8,-4.53,9.26
4.934858083724976,7.83,-1.76,-3.44,8.73
4.935704231262207,7.87,-0.98,-2.84,8.42
4.950764179229736,7.3,-0.51,-2.3,7.67
4.955177068710327,6.15,-0.03,-1.84,6.41
4.969768047332764,4.69,0.64,-1.56,4.98
4.976514101028442,3.07,1.62,-1.37,3.73
4.986778259277344,1.51,2.75,-0.72,3.21
4.997376918792725,0.19,3.69,0.11,3.69
5.006925106048584,-1.08,4.25,0.73,4.44
5.034822940826416,-2.62,4.65,1.32,5.49
5.035988092422485,-4.28,5.2,1.89,6.99
5.036726951599121,-5.67,5.73,2.35,8.39
5.05644416809082,-6.34,6.11,2.64,9.19
5.059524059295654,-6.36,6.31,2.48,9.29
5.065506935119629,-6.07,5.88,1.93,8.66
5.0777060985565186,-5.71,5.26,1.39,7.88
5.087162971496582,-5.42,5.25,1.43,7.68
5.097614049911499,-5.47,6.26,1.65,8.47
5.107707977294922,-6.61,7.86,1.26,10.34
5.1340789794921875,-8.85,8.72,1.12,12.47
5.1351470947265625,-11.02,7.77,2.12,13.64
5.135990142822266,-12.79,6.1,3.85,14.68
5.15439510345459,-14.62,5.33,6.2,16.75
5.156161069869995,-16.34,4.36,7.0,18.3
5.1683549880981445,-17.6,3.05,5.65,18.73
5.1777520179748535,-17.97,2.41,4.82,18.76
5.187722206115723,-16.41,2.57,5.4,17.46
5.1981730461120605,-13.67,3.03,3.76,14.49
5.207784175872803,-11.59,2.96,3.22,12.38
5.235350131988525,-11.97,1.83,2.95,12.46
5.236358165740967,-13.37,1.71,-0.51,13.48
5.237133979797363,-9.69,4.64,0.67,10.76
5.255218029022217,-0.11,8.23,11.13,13.84
5.258860111236572,8.09,10.35,12.21,17.93
5.2668280601501465,8.31,10.04,-1.34,13.1
5.278357028961182,3.78,9.19,-1.55,10.05
5.288504123687744,-2.78,4.95,-2.48,6.19
5.298737049102783,-7.51,0.59,-1.86,7.75
5.308319091796875,-9.43,-1.93,-1.33,9.71
5.333339214324951,-9.79,-2.67,-1.31,10.23
5.334412097930908,-9.32,-1.84,-0.76,9.53
5.3369810581207275,-7.67,0.05,2.87,8.18
5.355806112289429,-6.22,2.07,4.71,8.07
5.360342025756836,-5.8,3.6,2.58,7.29
5.368707180023193,-4.8,3.45,1.99,6.23
5.379818916320801,-2.97,1.49,1.45,3.62
5.388719081878662,-1.58,-0.04,0.15,1.58
5.39932107925415,-0.58,-0.47,-0.52,0.9
5.409089088439941,0.15,-0.17,-0.75,0.78
5.435476064682007,0.96,0.34,-0.38,1.08
5.436525106430054,1.84,0.58,-0.44,1.97
5.43743109703064,2.17,0.34,-1.27,2.53
5.454493999481201,1.73,-0.1,-1.04,2.02
5.459243059158325,0.85,-0.24,-0.2,0.9
5.4690752029418945,-0.12,-0.04,-0.16,0.2
5.480102062225342,-0.94,0.19,-0.47,1.06
5.489391088485718,-1.39,0.31,-0.49,1.5
5.4996421337127686,-1.26,0.22,-0.11,1.28
5.5096869468688965,-0.83,0.09,-0.15,0.84
5.535965919494629,-0.24,-0.02,-0.98,1.0
5.537083148956299,0.64,-0.37,-1.2,1.4
5.538272142410278,1.65,-0.5,-1.19,2.09
5.551823139190674,2.5,-0.3,-1.55,2.95
5.558207988739014,2.91,-0.24,-2.1,3.59
5.569890975952148,2.53,-0.55,-2.57,3.64
5.5803022384643555,1.79,-0.97,-2.19,2.99
5.590213060379028,1.16,-0.9,-1.52,2.11
5.600426197052002,0.41,-0.26,-0.68,0.83
5.6103150844573975,-0.29,0.67,0.3,0.78
5.635555267333984,-0.46,1.35,0.37,1.47
5.6366071701049805,-0.21,1.43,-0.32,1.48
5.638728141784668,0.32,1.18,-0.34,1.26
5.649922132492065,0.77,1.02,-1.06,1.66
5.66010308265686,0.97,1.1,-1.37,2.0
5.670801162719727,1.28,1.14,-1.18,2.08
5.680791139602661,2.0,1.07,-1.26,2.59
5.69050407409668,3.26,1.69,-0.11,3.67
5.700691223144531,4.59,2.42,0.73,5.23
5.710926055908203,5.49,2.95,0.72,6.27
5.740673065185547,5.75,3.63,-0.17,6.8
5.741837024688721,5.1,3.95,-0.88,6.51
5.742610931396484,3.69,3.95,-1.71,5.66
5.749207973480225,2.38,4.04,-3.02,5.57
5.7612690925598145,1.69,4.7,-3.38,6.03
5.771553993225098,1.61,5.64,-3.7,6.93
5.781073093414307,2.47,6.15,-3.79,7.63
5.791412115097046,4.26,6.22,-3.96,8.51
5.801156044006348,6.25,6.35,-4.17,9.83
5.811455249786377,7.9,6.84,-4.47,11.36
5.836252212524414,9.23,7.82,-5.43,13.26
5.8373799324035645,10.55,8.85,-6.97,15.43
5.839674949645996,11.81,9.26,-8.13,17.06
5.852279186248779,12.76,8.56,-8.39,17.5
5.860346078872681,11.78,6.5,-7.18,15.25
5.871747016906738,8.34,4.9,-6.81,11.82
5.8816142082214355,4.99,5.68,-7.31,10.51
5.892290115356445,3.91,7.58,-4.78,9.77
5.902047157287598,3.41,7.42,-4.27,9.21
5.912830114364624,2.03,4.69,-5.39,7.42
5.93876314163208,0.74,1.28,-5.84,6.02
5.939785957336426,1.44,0.12,-5.55,5.73
5.940612077713013,4.75,1.56,-4.59,6.78
5.950526237487793,8.76,2.37,-2.89,9.52
5.963079929351807,11.82,1.35,-2.53,12.16
5.97084903717041,12.72,-0.97,-3.92,13.34
5.982976913452148,11.53,-3.21,-6.08,13.42
5.992116928100586,9.79,-4.32,-6.89,12.72
6.00239896774292,8.68,-4.49,-6.66,11.82
6.012928009033203,8.45,-4.11,-6.0,11.14
6.03750205039978,8.38,-3.27,-5.0,10.29
6.038563251495361,7.84,-2.38,-4.16,9.18
6.041015148162842,7.04,-1.85,-3.6,8.12
6.051123142242432,6.37,-1.39,-2.94,7.15
6.063370227813721,5.84,-0.91,-2.11,6.27
6.072935104370117,5.28,-0.42,-1.5,5.5
6.082642078399658,4.57,0.29,-1.08,4.7
6.092893123626709,3.71,1.12,-0.62,3.92
6.103235244750977,2.86,1.87,0.02,3.41
6.113874912261963,2.05,2.34,0.44,3.14
6.141921043395996,1.21,2.67,0.83,3.04
6.142971992492676,0.2,3.4,1.34,3.65
6.143799066543579,-0.92,4.85,1.83,5.26
6.15154504776001,-1.97,6.63,2.0,7.19
6.161867141723633,-3.04,7.96,1.64,8.67
6.173367023468018,-4.22,9.06,1.05,10.04
6.1838600635528564,-5.52,9.63,0.55,11.11
6.193747043609619,-6.84,9.6,-0.12,11.78
6.204452037811279,-8.0,9.93,-0.44,12.75
6.215007066726685,-9.17,10.8,-0.02,14.16
6.2398271560668945,-11.12,11.17,-0.04,15.76
6.2407450675964355,-14.14,10.4,1.39,17.6
6.242079257965088,-17.92,7.81,2.25,19.67
6.2521772384643555,-22.18,4.95,3.95,23.06
6.264279127120972,-25.37,2.64,5.96,26.19
6.273691177368164,-26.66,0.95,5.82,27.3
6.283833980560303,-25.07,1.47,3.71,25.38
6.293785095214844,-19.94,2.97,3.97,20.54
6.303976058959961,-16.75,3.49,3.01,17.37
6.314222097396851,-15.97,3.35,-0.47,16.32
6.341329097747803,-11.6,5.12,-1.1,12.72
6.342356204986572,-0.3,9.12,9.67,13.29
6.343180179595947,9.93,12.29,10.51,18.97
6.353013038635254,11.35,14.85,0.22,18.69
6.3646559715271,7.67,12.12,-4.69,15.09
6.374334096908569,1.22,3.17,-7.81,8.51
6.384300231933594,-3.77,-3.47,-3.72,6.33
6.394420146942139,-7.09,-6.66,-3.62,10.37
6.4047651290893555,-10.91,-5.93,-2.45,12.65
6.4152281284332275,-13.16,-2.21,1.55,13.43
6.440587997436523,-12.37,2.1,8.87,15.36
6.441537141799927,-12.02,5.96,9.8,16.61
6.443374156951904,-12.16,7.41,4.44,14.91
6.453135013580322,-9.57,5.41,1.93,11.16
6.464985132217407,-5.22,1.11,1.7,5.6
6.475388050079346,-1.51,-1.8,-0.71,2.45
6.485095977783203,1.4,-2.4,-3.72,4.64
6.495645999908447,3.9,-0.85,-4.32,5.88
6.505068063735962,6.21,0.92,-3.58,7.22
6.5154900550842285,7.91,1.26,-4.41,9.14
6.539286136627197,7.11,0.07,-4.42,8.37
6.540240049362183,3.38,-0.78,-1.68,3.85
6.5437891483306885,-0.79,-0.1,0.07,0.79
6.553898096084595,-3.45,0.6,0.39,3.52
6.564350128173828,-4.01,0.83,1.41,4.33
6.575413227081299,-2.95,0.79,1.46,3.38
6.58570408821106,-1.36,0.74,0.03,1.54
6.595816135406494,-0.05,0.61,-0.61,0.86
6.606126070022583,1.13,0.43,-0.77,1.43
6.61630392074585,2.07,0.32,-1.24,2.43
6.647135257720947,2.38,0.15,-1.35,2.74
6.6480560302734375,2.23,0.25,-0.92,2.42
6.6488940715789795,1.63,0.75,-0.34,1.82
6.670335054397583,0.97,1.22,-0.19,1.57
6.6730241775512695,0.64,1.44,0.01,1.57
6.68405294418335,0.2,1.31,-0.54,1.43
6.687507152557373,0.15,1.18,-0.63,1.34
6.700550079345703,0.28,1.2,-0.87,1.5
6.706526041030884,0.32,1.32,-1.18,1.79
6.716781139373779,0.79,1.36,-1.02,1.87
6.744089126586914,1.56,1.05,-1.02,2.13
6.745106220245361,2.65,0.49,-1.17,2.93
6.745919227600098,4.0,0.04,-1.74,4.36
6.755265235900879,5.05,0.2,-1.93,5.4
6.7658751010894775,5.54,1.09,-1.56,5.85
6.777048110961914,5.63,2.17,-1.02,6.11
6.786710262298584,5.67,3.03,-0.97,6.5
6.797789096832275,5.68,3.42,-1.44,6.78
6.806823253631592,5.26,3.41,-2.78,6.85
6.817300081253052,4.65,3.61,-3.93,7.07
6.844673156738281,4.22,4.23,-4.37,7.4
6.845595121383667,4.26,5.02,-4.62,8.04
6.84642219543457,5.43,6.01,-5.53,9.8
6.855762958526611,7.52,7.05,-6.07,11.96
6.867398262023926,9.67,8.03,-7.4,14.58
6.8770060539245605,11.62,8.59,-8.84,16.93
6.887700080871582,12.67,8.33,-8.63,17.44
6.8974220752716064,10.78,7.17,-6.44,14.45
6.90751314163208,6.14,6.5,-6.76,11.2
6.918095111846924,2.23,8.14,-7.03,10.98
6.94768214225769,0.69,10.44,-5.84,11.98
6.949080944061279,-0.09,10.59,-6.19,12.26
6.950011253356934,-0.18,7.45,-4.88,8.9
6.972692012786865,1.11,3.91,-4.8,6.28
6.975440979003906,4.81,3.92,-3.42,7.08
6.983757972717285,8.49,3.53,-4.94,10.43
6.987573146820068,11.12,1.57,-4.01,11.92
7.001168251037598,12.55,-0.48,-4.09,13.2
7.008172988891602,12.5,-2.1,-5.41,13.78
7.018038034439087,11.52,-2.99,-5.82,13.24
7.044525146484375,10.51,-3.32,-5.46,12.3
7.045615196228027,9.78,-3.72,-4.94,11.57
7.046452045440674,9.12,-3.79,-4.48,10.84
7.057088136672974,8.45,-3.22,-4.16,9.95
7.068352222442627,8.09,-2.46,-3.65,9.2
7.078893184661865,8.03,-1.88,-2.94,8.75
7.088013172149658,7.81,-1.57,-2.27,8.28
7.099575996398926,7.17,-1.29,-1.83,7.51
7.108526229858398,6.23,-0.72,-1.65,6.48
7.119113922119141,5.1,0.02,-1.44,5.29
7.144657135009766,3.75,0.87,-1.13,4.01
7.145622253417969,2.41,1.66,-0.68,3.0
7.147212028503418,1.2,2.43,-0.15,2.71
7.15736198425293,0.06,3.38,0.37,3.4
7.167741060256958,-1.22,4.56,1.04,4.83
7.17982816696167,-2.6,5.83,1.96,6.67
7.188961029052734,-3.68,6.92,2.67,8.27
7.1993489265441895,-4.05,7.55,2.5,8.92
7.209381103515625,-3.97,7.46,1.76,8.63
7.219548225402832,-4.01,7.73,1.01,8.76
7.248308181762695,-4.69,8.51,-0.27,9.72
7.249251127243042,-6.09,8.99,-1.81,11.0
7.250180244445801,-7.59,8.7,-2.15,11.74
7.271801948547363,-9.15,8.57,-1.18,12.59
7.274986267089844,-11.51,9.3,0.58,14.8
7.283987045288086,-14.58,9.41,2.85,17.58
7.289377212524414,-17.91,8.12,4.23,20.11
7.300377130508423,-21.33,5.97,5.28,22.77
7.309615135192871,-24.53,3.63,5.24,25.34
7.3195719718933105,-26.63,1.8,5.13,27.17
7.343570232391357,-26.01,1.78,3.84,26.35
7.344758987426758,-20.84,2.22,3.25,21.2
7.348532199859619,-16.91,1.46,3.15,17.26
7.3587260246276855,-15.8,1.38,0.96,15.88
7.368402004241943,-11.52,3.83,-0.09,12.14
7.381092071533203,-1.15,8.11,8.73,11.97
7.390140056610107,8.72,11.66,7.59,16.41
7.400465965270996,11.77,13.58,-5.0,18.65
7.410858154296875,8.49,11.98,-5.25,15.59
7.420364141464233,1.46,4.92,-6.55,8.32
7.445812225341797,-3.69,-1.06,-2.51,4.58
7.447066068649292,-6.21,-4.2,-2.19,7.81
7.449014186859131,-8.8,-4.71,-2.37,10.25
7.472628116607666,-10.8,-2.82,0.97,11.2
7.476354122161865,-10.63,0.7,6.68,12.57
7.481853008270264,-10.11,4.04,7.85,13.42
7.490864038467407,-10.42,5.17,5.52,12.87
7.500667095184326,-8.81,4.32,3.07,10.28
7.510921955108643,-4.92,2.17,1.23,5.51
7.521129131317139,-1.48,-0.05,-0.37,1.52
7.55149507522583,0.82,-1.03,-2.25,2.6
7.552460193634033,2.43,-0.64,-2.85,3.79
7.553278923034668,3.53,0.25,-2.48,4.32
7.5728371143341064,3.74,0.8,-2.25,4.43
7.576478004455566,2.75,0.21,-1.65,3.21
7.584144115447998,1.17,-0.24,-0.28,1.22
7.591308116912842,-0.47,0.25,0.28,0.6
7.601240158081055,-1.38,0.59,-0.23,1.51
7.6124420166015625,-1.16,0.5,-0.6,1.39
7.621843099594116,-0.64,0.21,-0.47,0.82
7.651937007904053,-0.34,0.01,-0.42,0.54
7.65286111831665,-0.13,-0.11,-0.74,0.75
7.653716087341309,0.12,-0.25,-0.91,0.95
7.672307014465332,0.67,-0.31,-0.85,1.12
7.6754961013793945,1.29,-0.39,-1.1,1.73
7.681958198547363,1.52,-0.45,-1.0,1.87
7.692093133926392,1.27,-0.38,-0.83,1.56
7.701954126358032,0.85,-0.17,-0.87,1.22
7.712357044219971,0.46,0.23,-0.94,1.07
7.721914052963257,0.2,0.61,-0.8,1.02
7.747894048690796,0.17,0.93,-0.59,1.11
7.749016046524048,0.29,1.04,-0.45,1.16
7.750624179840088,0.45,0.99,-0.55,1.21
7.77273416519165,0.7,1.04,-0.61,1.39
7.7762322425842285,1.18,1.18,-0.93,1.91
7.78349494934082,1.96,1.16,-1.1,2.52
7.79237699508667,2.9,0.99,-1.45,3.39
7.8025360107421875,3.74,0.92,-1.55,4.15
7.813190937042236,4.53,1.17,-1.49,4.91
7.823163032531738,5.07,1.43,-1.37,5.44
7.852743148803711,5.28,2.19,-1.36,5.87
7.853759050369263,4.84,2.96,-1.23,5.8
7.854586124420166,3.91,3.49,-1.71,5.51
7.869203090667725,2.87,3.78,-2.41,5.32
7.871319055557251,2.01,4.02,-2.81,5.3
7.88444709777832,1.59,4.47,-2.5,5.36
7.892958164215088,2.05,5.19,-2.5,6.11
7.903033256530762,3.46,5.9,-3.45,7.66
7.914409160614014,5.32,6.34,-3.96,9.17
7.92332911491394,7.02,6.33,-3.94,10.24
7.953943252563477,8.43,6.34,-4.52,11.47
7.955002069473267,9.82,6.72,-5.99,13.32
7.955860137939453,10.99,7.3,-6.95,14.91
7.966492176055908,11.92,7.81,-7.46,16.08
7.972140073776245,11.47,7.84,-6.53,15.35
7.986161231994629,8.73,7.55,-6.47,13.23
7.993340015411377,6.02,8.21,-7.51,12.65
8.004178047180176,5.79,9.17,-6.79,12.79
8.014648914337158,6.47,8.07,-6.26,12.09
8.020549058914185,6.65,8.27,-6.35,12.36
8.045717239379883,5.32,4.63,-7.52,10.3
8.046849250793457,2.52,0.94,-5.59,6.2
8.049479961395264,0.07,-0.78,-6.37,6.41
8.071531057357788,1.12,1.12,-6.44,6.63
8.075136184692383,6.04,3.09,-5.2,8.54
8.081622123718262,10.81,2.98,-1.93,11.37
8.091753959655762,13.56,1.1,-2.06,13.75
8.101192951202393,13.24,-2.24,-4.3,14.09
8.112129211425781,10.86,-4.46,-5.93,13.15
8.121376037597656,8.44,-4.63,-6.37,11.54
8.141764163970947,7.15,-4.38,-5.8,10.19
8.142723083496094,6.94,-4.26,-5.01,9.56
8.15018892288208,6.88,-3.82,-4.27,8.95
8.16204023361206,6.56,-3.29,-3.94,8.32
8.171661138534546,6.2,-2.75,-3.62,7.68
8.182199001312256,5.79,-1.98,-2.96,6.79
8.191911220550537,5.12,-1.22,-2.19,5.7
8.202521085739136,4.05,-0.44,-1.46,4.32
8.213624000549316,2.74,0.47,-0.89,2.91
8.222159147262573,1.49,1.41,-0.34,2.07
8.250771045684814,0.39,2.18,0.22,2.22
8.251848220825195,-0.57,2.71,0.78,2.87
8.252682209014893,-1.29,3.54,1.45,4.03
8.271428108215332,-1.73,4.61,1.9,5.27
8.274761199951172,-2.19,5.35,1.67,6.01
8.283875942230225,-2.79,6.07,1.02,6.75
8.292307138442993,-3.31,6.97,0.59,7.73
8.302168130874634,-3.89,7.9,0.59,8.82
8.31415605545044,-4.82,8.86,0.32,10.09
8.322777032852173,-6.19,10.22,-0.17,11.94
8.346236228942871,-7.95,11.73,-0.51,14.17
8.347357034683228,-10.0,12.3,-0.38,15.85
8.351079940795898,-11.78,10.87,0.3,16.03
8.366618156433105,-14.29,8.01,3.84,16.82
8.372908115386963,-17.78,5.92,5.61,19.56
8.38463020324707,-20.6,3.72,5.15,21.55
8.3925461769104,-22.79,2.51,4.57,23.37
8.402976989746094,-23.11,2.81,4.16,23.64
8.413644075393677,-20.11,3.48,4.58,20.91
8.4238920211792,-17.09,3.71,3.85,17.9
8.447717189788818,-15.98,3.48,2.49,16.54
8.448771953582764,-15.41,3.88,0.99,15.92
8.451617240905762,-9.58,6.88,1.53,11.89
8.471084117889404,1.68,10.98,8.0,13.68
8.474762916564941,10.76,14.98,12.71,22.39
8.482247114181519,8.6,13.71,1.99,16.3
8.494000911712646,0.12,4.72,-11.7,12.61
8.5035719871521,-5.51,-2.02,-10.36,11.9
8.514051914215088,-7.94,-5.38,-2.09,9.81
8.52414608001709,-9.56,-5.43,2.55,11.28
8.549504041671753,-11.3,-2.39,1.09,11.6
8.550591945648193,-10.26,0.29,3.04,10.7
8.552174091339111,-8.29,2.11,8.24,11.87
8.569000244140625,-8.16,4.24,6.07,11.01
8.572902202606201,-7.94,5.22,2.2,9.75
8.58436107635498,-5.82,3.84,1.37,7.1
8.594648122787476,-3.42,0.68,0.59,3.53
8.60446310043335,-0.69,-0.93,-0.57,1.29
8.614903926849365,2.33,-0.96,-1.94,3.18
8.624872207641602,4.55,-0.38,-3.21,5.58
8.653357028961182,5.58,0.17,-3.02,6.34
8.654417991638184,4.74,0.13,-2.98,5.6
8.655224084854126,2.28,-0.37,-2.54,3.43
8.66812515258789,0.69,-0.11,-0.65,0.95
8.673587083816528,-0.03,0.34,0.69,0.76
8.685853004455566,-1.02,0.53,0.77,1.38
8.694857120513916,-2.4,0.61,0.01,2.47
8.705241203308105,-2.76,0.55,-0.31,2.83
8.715471267700195,-1.19,0.26,0.03,1.21
8.725314140319824,0.49,-0.26,-0.3,0.63
8.752748012542725,1.46,-0.18,-0.96,1.75
8.753864049911499,2.28,-0.01,-1.41,2.68
8.754672050476074,2.96,-0.01,-1.35,3.25
8.769988059997559,2.58,-0.04,-1.14,2.82
8.774235248565674,1.24,0.04,-1.0,1.59
8.78550100326538,0.48,0.4,-0.98,1.16
8.795752048492432,0.48,0.66,-1.29,1.52
8.805631160736084,0.23,0.87,-1.33,1.6
8.816265106201172,-0.17,1.49,-1.12,1.87
8.826036930084229,-0.36,2.2,-0.63,2.31
8.856548070907593,-0.23,2.37,-0.77,2.5
8.857584953308105,0.43,2.41,-0.88,2.6
8.858427047729492,1.32,2.13,-0.53,2.56
8.865743160247803,2.46,1.46,-0.49,2.9
8.874730110168457,3.75,0.59,-0.77,3.87
8.886415958404541,5.09,-0.1,-1.08,5.2
8.89629602432251,6.27,-0.17,-1.39,6.42
8.906201124191284,7.06,0.88,-1.38,7.24
8.916551113128662,6.71,2.2,-1.46,7.21
8.926499128341675,5.56,2.97,-1.92,6.58
8.955841064453125,4.18,3.33,-3.44,6.35
8.956838130950928,3.04,3.76,-4.69,6.73
8.957683086395264,2.35,4.93,-4.72,7.21
8.966276168823242,2.46,6.33,-4.52,8.15
8.975507259368896,3.92,6.96,-4.82,9.32
8.986605167388916,6.31,7.29,-5.39,11.04
8.997371196746826,8.37,7.9,-6.26,13.1
9.007026195526123,9.94,8.84,-7.64,15.34
9.016912937164307,11.26,10.17,-8.92,17.6
9.027338981628418,12.69,11.09,-9.6,19.39
9.053057193756104,13.41,9.6,-8.74,18.66
9.054043054580688,10.94,6.52,-7.71,14.88
9.05551815032959,6.7,5.99,-9.13,12.81
9.067354202270508,5.39,8.39,-8.7,13.23
9.07767915725708,6.2,9.99,-7.25,13.81
9.087162971496582,5.95,6.65,-6.61,11.1
9.097572088241577,3.54,1.84,-6.53,7.65
9.10742712020874,0.27,-1.11,-4.62,4.75
9.118324041366577,-0.83,1.14,-4.37,4.59
9.127789974212646,3.02,3.87,-7.45,8.92
9.162346124649048,9.26,2.58,-3.05,10.08
9.163366079330444,14.01,0.0,-1.21,14.06
9.164160251617432,14.96,-3.47,-4.45,15.98
9.189439058303833,12.56,-6.54,-7.54,16.04
9.193190097808838,9.68,-7.3,-8.07,14.56
9.200163125991821,8.31,-5.99,-6.48,12.12
9.20354700088501,8.66,-4.21,-4.42,10.59
9.216605186462402,8.82,-3.23,-2.88,9.82
9.220349073410034,8.0,-2.61,-1.89,8.62
9.233750104904175,6.94,-1.81,-1.21,7.27
9.252118110656738,5.97,-0.9,-0.39,6.05
9.253236055374146,5.06,0.01,0.39,5.07
9.256609916687012,4.06,1.07,0.93,4.3
9.266662120819092,2.94,2.19,1.46,3.94
9.276742935180664,1.97,3.11,1.84,4.11
9.288445949554443,1.33,3.84,2.07,4.56
9.298902988433838,0.92,4.54,2.17,5.11
9.30837106704712,0.34,5.65,2.05,6.02
9.318665981292725,-0.51,7.36,1.81,7.59
9.329548120498657,-1.57,9.24,1.31,9.46
9.357190132141113,-2.92,11.16,0.88,11.56
9.358295917510986,-4.56,12.91,0.57,13.7
9.359175205230713,-6.41,14.33,0.46,15.7
9.368040084838867,-8.49,15.39,0.72,17.59
9.380289077758789,-11.1,15.66,0.84,19.21
9.387685060501099,-14.28,13.71,2.26,19.92
9.399882078170776,-17.83,9.28,2.83,20.29
9.409019947052002,-21.99,5.34,4.01,22.98
9.419167041778564,-25.87,2.5,5.44,26.55
9.430310249328613,-27.8,1.18,5.61,28.38
9.454161167144775,-25.28,1.43,5.08,25.82
9.455341100692749,-19.19,3.13,4.59,19.97
9.457722187042236,-14.21,4.51,1.48,14.98
9.46803617477417,-11.56,4.4,-0.17,12.37
9.478245258331299,-12.37,2.55,-1.54,12.72
9.490005016326904,-11.67,2.68,-2.88,12.31
9.499680042266846,-5.0,6.03,5.58,9.61
9.509599208831787,3.71,9.53,16.57,19.47
9.519971132278442,8.04,9.43,3.38,12.84
9.530219078063965,6.94,6.71,-4.63,10.7
9.560026168823242,1.73,4.43,-1.78,5.07
9.56098222732544,-4.61,2.27,-2.62,5.76
9.561848163604736,-8.96,0.67,-3.08,9.49
9.568433046340942,-10.85,-0.72,-2.45,11.14
9.57844591140747,-10.85,-0.79,1.02,10.92
9.58896803855896,-9.12,1.0,3.62,9.86
9.600665092468262,-6.66,1.84,4.88,8.45
9.610252141952515,-5.17,2.19,4.28,7.05
9.620320081710815,-4.21,2.72,1.71,5.29
9.63125205039978,-3.43,1.87,-0.12,3.9
9.65911602973938,-2.7,0.63,-0.04,2.77
9.660093069076538,-1.35,0.05,-0.24,1.37
9.66094708442688,0.18,-0.03,-0.97,0.98
9.66902208328247,1.48,0.33,-2.07,2.56
9.68691611289978,2.33,0.57,-2.27,3.3
9.690715074539185,1.97,0.25,-1.32,2.38
9.70073413848877,0.54,-0.04,-1.14,1.26
9.71083402633667,-0.24,0.3,-0.27,0.46
9.720953941345215,-0.16,0.37,0.84,0.93
9.731017112731934,-0.3,0.39,0.81,0.94
9.762853145599365,-0.98,0.66,-0.28,1.21
9.7637939453125,-1.24,0.71,-0.59,1.54
9.764647960662842,-0.73,0.26,-0.27,0.82
9.78680419921875,-0.31,-0.15,-0.4,0.52
9.788088083267212,-0.17,-0.13,-0.61,0.64
9.803359985351562,0.15,0.13,-0.79,0.81
9.80696725845337,0.87,0.08,-0.82,1.19
9.816922187805176,1.71,-0.35,-1.34,2.2
9.821315050125122,2.21,-0.67,-2.01,3.06
9.833193063735962,2.3,-0.57,-2.28,3.28
9.859114170074463,2.08,-0.25,-2.15,3.0
9.860257148742676,1.46,0.01,-1.83,2.34
9.861058235168457,0.61,0.39,-0.86,1.12
9.870212078094482,-0.02,0.73,0.15,0.74
9.883842945098877,-0.23,1.07,0.61,1.25
9.890170097351074,0.27,1.5,0.61,1.64
9.901740074157715,1.15,1.92,-0.2,2.24
9.912381172180176,1.96,2.19,-0.8,3.04
9.92188024520874,2.56,2.06,-1.32,3.54
9.933109045028687,3.0,1.68,-1.74,3.85
9.963490009307861,3.44,1.48,-1.94,4.21
9.96440315246582,4.03,1.41,-1.54,4.53
9.965250968933105,4.49,1.49,-1.26,4.89
9.989643096923828,4.68,1.98,-1.31,5.24
9.993406057357788,4.83,2.53,-1.56,5.67
9.998579025268555,4.7,2.71,-2.29,5.88
10.001327991485596,4.05,2.94,-3.66,6.2
10.016524076461792,3.31,3.51,-4.34,6.48
10.022390127182007,2.82,4.43,-3.64,6.38
10.033810138702393,3.05,5.62,-3.35,7.21
10.058557033538818,4.48,6.46,-3.8,8.73
10.059766054153442,6.52,6.82,-4.28,10.36
10.061275959014893,8.26,7.15,-4.53,11.82
10.07129192352295,9.51,7.51,-5.36,13.25
10.081597089767456,10.58,7.81,-6.73,14.77
10.093347072601318,12.0,8.15,-8.32,16.72
10.103064060211182,13.27,8.23,-8.79,17.91
10.113784074783325,11.93,7.58,-8.01,16.24
10.12314224243164,7.82,7.57,-8.89,14.05
10.13312292098999,5.28,8.85,-9.08,13.73
10.161755084991455,5.35,9.9,-5.9,12.7
10.16266393661499,4.85,7.98,-6.24,11.23
10.163490056991577,2.81,3.48,-7.79,8.98
10.171911239624023,0.68,-0.13,-7.16,7.19
10.181926250457764,1.0,0.73,-5.73,5.86
10.192260265350342,5.0,3.11,-4.88,7.64
10.203890085220337,9.5,3.3,-2.15,10.28
10.214179992675781,11.91,1.14,-2.7,12.26
10.224040031433105,11.64,-2.31,-4.67,12.75
10.233850002288818,9.9,-4.37,-5.64,12.2
10.263005256652832,8.09,-4.47,-6.19,11.12
10.263965129852295,7.31,-4.64,-5.89,10.47
10.264819145202637,7.47,-5.29,-5.47,10.66
10.286640167236328,7.58,-5.36,-4.98,10.53
10.287862062454224,7.2,-4.8,-4.65,9.82
10.30486011505127,6.45,-4.19,-4.35,8.83
10.308443069458008,5.44,-3.47,-3.88,7.52
10.31611704826355,4.48,-2.43,-3.25,6.04
10.32413101196289,3.85,-1.29,-2.6,4.82
10.334156036376953,3.33,-0.24,-1.77,3.77
10.363011121749878,2.7,0.64,-1.11,2.98
10.364179134368896,2.02,1.52,-0.69,2.62
10.365025043487549,1.3,2.39,-0.53,2.77
10.386138916015625,0.65,3.37,-0.22,3.43
10.386974096298218,0.03,4.79,-0.32,4.8
10.403054237365723,-0.84,6.78,-0.7,6.86
10.406451225280762,-1.98,8.79,-0.75,9.04
10.41648817062378,-3.25,10.32,-0.8,10.84
10.425219058990479,-4.56,11.75,-0.54,12.61
10.435522079467773,-6.2,13.44,-0.97,14.83
10.462171077728271,-8.36,14.99,-1.18,17.2
10.463308095932007,-10.93,15.43,-0.91,18.93
10.464187145233154,-13.51,14.37,0.39,19.72
10.473834037780762,-16.09,11.06,2.94,19.74
10.483805179595947,-19.27,7.3,5.14,21.23
10.493911266326904,-22.73,3.74,5.66,23.72
10.50554609298706,-25.27,1.14,5.27,25.83
10.515706062316895,-25.16,0.79,5.59,25.78
10.525393009185791,-21.0,2.99,6.15,22.08
10.536136150360107,-16.01,4.58,5.57,17.55
10.566447257995605,-12.65,4.7,2.74,13.77
10.567410945892334,-10.46,4.74,-0.08,11.48
10.56826114654541,-9.98,4.37,-0.25,10.89
10.586632251739502,-7.25,5.34,0.18,9.0
10.587476253509521,-0.48,8.13,8.6,11.84
10.600510120391846,6.53,10.21,12.43,17.36
10.606358051300049,8.85,9.57,0.05,13.03
10.616832256317139,5.33,6.6,-5.59,10.15
10.625917911529541,-0.71,2.99,-5.36,6.17
10.636191129684448,-5.12,0.31,-3.9,6.44
10.667679071426392,-7.77,-1.14,-3.53,8.61
10.668719053268433,-9.54,-1.94,-1.12,9.79
10.66953992843628,-9.95,-0.85,1.78,10.14
10.686809062957764,-8.89,1.06,3.94,9.78
10.688117027282715,-7.57,2.19,5.81,9.79
10.700914144515991,-7.69,3.27,4.19,9.34
10.706650257110596,-7.28,3.81,1.62,8.37
10.716639995574951,-5.02,1.1,0.2,5.14
10.726591110229492,-2.81,-0.33,-0.79,2.93
10.736523151397705,-0.79,-0.23,-0.75,1.11
10.766686916351318,0.74,-0.17,-0.58,0.95
10.7677321434021,1.89,0.26,-1.43,2.38
10.768582105636597,2.59,0.84,-2.15,3.46
10.788665056228638,2.47,0.9,-1.85,3.21
10.79249095916748,1.44,0.13,-1.03,1.77
10.797832012176514,0.51,-0.52,-0.58,0.93
10.805660247802734,0.41,-0.42,-0.2,0.62
10.816920042037964,0.57,-0.15,0.15,0.6
10.827063083648682,0.39,0.07,-0.02,0.39
10.837403059005737,-0.11,0.26,-0.11,0.3
10.86319613456726,-0.98,0.43,0.02,1.07
10.864281177520752,-1.41,0.47,0.21,1.5
10.865743160247803,-1.03,0.33,0.01,1.08
10.888701915740967,-0.35,0.06,-0.42,0.55
10.891273975372314,0.61,-0.14,-0.84,1.04
10.898360252380371,1.62,-0.37,-1.35,2.14
10.907863140106201,2.38,-0.46,-1.62,2.91
10.917604923248291,2.68,-0.27,-2.06,3.39
10.927434921264648,1.95,-0.02,-2.01,2.8
10.938171148300171,0.64,0.51,-1.17,1.42
10.967913150787354,-0.26,0.98,-0.91,1.36
10.968877077102661,-0.79,1.05,-0.88,1.58
10.96962308883667,-0.52,1.18,-0.81,1.52
10.987226963043213,0.25,1.2,-1.19,1.7
10.988486051559448,0.96,1.22,-1.3,2.02
11.001439094543457,2.2,1.72,-0.35,2.81
11.008171081542969,3.68,1.64,-0.59,4.07
11.018112182617188,5.53,1.17,-0.67,5.69
11.028806209564209,7.21,1.05,-0.81,7.33
11.038250923156738,7.56,1.71,-1.32,7.86
11.066565036773682,6.55,2.76,-2.01,7.38
11.067584037780762,4.99,4.13,-2.45,6.92
11.068422079086304,3.68,4.63,-3.41,6.82
11.08658504486084,2.79,4.91,-4.89,7.47
11.087953090667725,2.09,5.88,-4.49,7.68
11.102177143096924,2.15,6.96,-4.36,8.48
11.108518123626709,3.53,7.38,-4.41,9.29
11.11891508102417,5.83,7.4,-4.66,10.51
11.129301071166992,8.05,7.71,-5.41,12.39
11.1392822265625,9.68,8.88,-7.02,14.89
11.166839122772217,10.94,10.47,-8.72,17.47
11.167882919311523,12.84,11.67,-9.58,19.81
11.168744087219238,14.43,10.33,-9.21,19.99
11.186537265777588,14.47,6.73,-6.48,17.22
11.187850952148438,9.46,3.68,-8.22,13.06
11.201128959655762,4.93,4.13,-7.79,10.1
11.209634065628052,2.76,6.85,-5.05,8.94
11.219283103942871,0.96,7.62,-6.96,10.36
11.230384111404419,-0.62,5.2,-6.69,8.49
11.2398841381073,-0.51,2.11,-5.58,5.98
11.269995212554932,2.5,1.93,-4.78,5.72
11.271091938018799,6.9,1.53,-4.97,8.64
11.271965980529785,11.02,0.38,-2.46,11.29
11.285628080368042,13.6,-1.51,-2.68,13.94
11.288290023803711,13.6,-4.05,-4.64,14.92
11.302073001861572,11.44,-5.91,-6.81,14.56
11.308601140975952,8.71,-6.48,-7.52,13.2
11.319901943206787,7.02,-6.02,-6.39,11.24
11.330897092819214,6.69,-4.78,-4.32,9.28
11.340229034423828,6.9,-3.45,-2.6,8.14
11.367366075515747,6.9,-2.5,-1.75,7.54
11.368306159973145,6.68,-2.21,-1.32,7.15
11.369190216064453,6.25,-2.07,-0.72,6.62
11.386106967926025,5.63,-1.48,-0.19,5.82
11.388729095458984,4.87,-0.56,0.13,4.9
11.400780200958252,3.92,0.53,0.49,3.98
11.409218072891235,2.79,1.51,0.78,3.26
11.420530080795288,1.78,2.28,1.05,3.07
11.430968046188354,1.05,2.73,1.37,3.22
11.440773010253906,0.47,3.21,1.5,3.57
11.469628095626831,-0.29,4.13,1.52,4.41
11.470868110656738,-1.24,5.61,1.43,5.92
11.471717119216919,-2.29,7.53,0.87,7.91
11.48587703704834,-3.32,9.76,0.22,10.31
11.489684104919434,-4.43,11.59,-0.19,12.4
11.50128698348999,-5.83,12.55,-0.8,13.86
11.51186203956604,-7.57,13.16,-1.18,15.22
11.521595001220703,-9.77,13.94,-1.84,17.12
11.5316481590271,-12.6,13.52,-0.75,18.49
11.54125714302063,-16.3,10.87,1.9,19.68
11.56615400314331,-20.64,7.23,4.15,22.25
11.567273139953613,-24.86,4.05,5.2,25.71
11.570134162902832,-27.5,1.51,5.69,28.12
11.586076259613037,-27.68,0.94,5.62,28.26
11.589815139770508,-22.94,2.93,4.31,23.52
11.60140323638916,-16.91,4.33,3.44,17.79
11.61198616027832,-14.15,3.47,2.59,14.79
11.621416091918945,-12.96,2.84,-1.05,13.3
11.632065057754517,-6.94,5.33,-0.29,8.75
11.641948223114014,4.21,10.27,11.95,16.3
11.670323133468628,12.84,13.4,11.84,22.01
11.67136526107788,13.43,12.82,-1.63,18.63
11.672194004058838,7.7,6.58,-6.67,12.12
11.686095237731934,-0.29,0.34,-6.13,6.14
11.690814971923828,-5.29,-3.06,-4.47,7.57
11.702049255371094,-8.25,-4.79,-4.95,10.74
11.712748050689697,-10.7,-4.41,-1.72,11.7
11.722404956817627,-11.93,-1.34,1.14,12.05
11.732931137084961,-11.78,1.6,4.36,12.66
11.742988109588623,-11.53,4.78,8.46,15.07
11.774570941925049,-11.96,7.72,5.94,15.42
11.775607109069824,-8.65,2.05,2.56,9.25
11.776466131210327,-4.72,-0.72,2.49,5.38
11.781865119934082,-1.43,-0.61,1.43,2.11
11.791244983673096,0.96,-0.59,-3.2,3.39
11.801283121109009,3.82,-0.01,-3.75,5.35
11.813977241516113,6.21,0.77,-3.3,7.07
11.822703123092651,6.58,1.06,-4.56,8.07
11.833062171936035,4.56,0.2,-3.15,5.54
11.842819213867188,1.92,0.05,-0.79,2.07
11.871711254119873,-0.84,-0.01,0.02,0.84
11.872852087020874,-3.73,0.23,0.34,3.75
11.873719215393066,-5.59,0.9,1.61,5.88
11.882035255432129,-5.34,1.47,1.95,5.87
11.891691207885742,-3.02,0.98,0.81,3.27
11.90179705619812,-0.52,0.28,0.06,0.59
11.914261102676392,1.15,-0.04,-1.08,1.57
11.923160076141357,2.34,-0.17,-2.06,3.12
11.933454990386963,3.02,-0.14,-2.19,3.73
11.943357944488525,2.61,-0.14,-1.98,3.27
11.972157955169678,1.37,-0.11,-1.43,1.98
11.973227977752686,0.49,0.49,-0.41,0.8
11.974041938781738,0.19,1.13,0.13,1.15
11.982100009918213,0.35,1.16,-0.37,1.26
11.992495059967041,0.83,0.92,-0.42,1.3
12.004269123077393,1.36,0.44,-1.09,1.79
12.01454210281372,1.86,0.01,-1.42,2.34
12.023406982421875,2.14,0.06,-1.43,2.57
12.034060001373291,2.06,0.42,-1.47,2.56
12.044093132019043,1.96,0.78,-1.26,2.45
12.069760084152222,2.19,0.89,-1.28,2.68
12.07087516784668,2.67,0.79,-1.64,3.23
12.072135925292969,3.39,0.74,-1.75,3.88
12.083965063095093,4.18,0.92,-1.4,4.5
12.094312191009521,4.89,1.34,-1.04,5.17
12.103878021240234,5.45,1.71,-1.27,5.85
12.115527153015137,5.44,1.95,-1.64,6.0
12.12408709526062,4.8,2.52,-3.16,6.27
12.134518146514893,3.91,3.45,-4.09,6.62
12.144097089767456,3.11,4.58,-3.82,6.72
12.167477130889893,2.73,5.82,-3.62,7.37
12.168519973754883,3.46,6.7,-3.76,8.42
12.172713041305542,5.36,6.94,-4.24,9.74
12.18456220626831,7.53,7.02,-4.69,11.31
12.19477105140686,9.22,7.49,-5.55,13.11
12.20450210571289,10.52,8.51,-7.08,15.27
12.21462607383728,11.99,9.69,-9.05,17.87
12.224797248840332,13.92,10.5,-7.88,19.13
12.234777927398682,13.29,9.03,-8.26,18.06
12.24524211883545,8.91,6.73,-7.39,13.39
12.26678204536438,4.64,7.32,-8.56,12.18
12.267840147018433,3.52,10.06,-7.13,12.82
12.273288249969482,3.51,10.67,-4.62,12.14
12.283632040023804,2.46,7.45,-5.65,9.66
12.295732021331787,1.05,2.76,-6.87,7.47
12.304872035980225,-0.07,0.49,-4.72,4.74
12.316648960113525,0.49,1.39,-4.47,4.7
12.325686931610107,3.38,2.66,-2.58,5.01
12.335450172424316,6.27,1.76,-2.34,6.91
12.345855236053467,8.0,-0.71,-3.0,8.57
12.36892318725586,8.62,-3.22,-3.86,9.97
12.369808197021484,8.53,-5.01,-4.78,10.98
12.373898983001709,8.23,-5.78,-5.07,11.26
12.383875131607056,8.23,-6.22,-4.81,11.38
12.394344091415405,8.41,-6.82,-4.53,11.73
12.405616044998169,8.17,-7.09,-4.26,11.62
12.415809154510498,7.51,-6.8,-3.98,10.88
12.425791263580322,6.8,-6.18,-3.59,9.86
12.435873031616211,6.31,-5.38,-2.95,8.8
12.446310997009277,6.13,-4.34,-2.28,7.84
12.46806812286377,6.14,-3.08,-1.89,7.12
12.469161033630371,5.94,-1.78,-1.54,6.38
12.474462985992432,5.41,-0.86,-0.99,5.56
12.484577178955078,4.63,-0.21,-0.46,4.65
12.494969129562378,3.78,0.4,0.06,3.8
12.506089210510254,3.05,1.27,0.55,3.34
12.516587257385254,2.52,2.4,0.84,3.57
12.526238918304443,1.96,3.71,0.88,4.28
12.536795139312744,1.2,5.57,0.82,5.75
12.547717094421387,0.16,8.2,0.67,8.22
12.568926095962524,-1.1,11.08,0.45,11.14
12.569946050643921,-2.56,13.85,0.04,14.08
12.575336933135986,-4.4,16.12,-0.79,16.72
12.586323261260986,-6.78,17.56,-1.94,18.92
12.597862243652344,-9.3,17.89,-3.36,20.44
12.607931137084961,-11.77,16.89,-4.99,21.18
12.617156028747559,-15.59,13.88,-0.17,20.87
12.628622055053711,-20.24,9.69,4.52,22.89
12.637269020080566,-25.57,5.5,5.01,26.63
12.648612022399902,-30.34,2.02,4.63,30.75
12.670409202575684,-31.05,0.36,5.01,31.45
12.671460151672363,-28.01,1.68,4.44,28.4
12.676059246063232,-21.39,2.96,4.4,22.03
12.686108112335205,-17.0,3.53,3.01,17.62
12.696340084075928,-13.91,4.21,-0.97,14.56
12.70634913444519,-6.27,7.49,1.24,9.84
12.718545913696289,4.02,11.54,8.38,14.81
12.728693962097168,10.64,14.42,2.76,18.13
12.738493919372559,12.76,15.15,-2.15,19.92
12.748171091079712,8.01,5.93,-9.86,14.01
12.776127099990845,1.87,-2.64,-7.13,7.82
12.777123928070068,-2.9,-5.99,-2.57,7.13
12.77801513671875,-7.25,-6.12,-3.21,10.01
12.786736965179443,-10.29,-3.07,-1.84,10.89
12.800424098968506,-10.92,1.03,2.9,11.34
12.806946039199829,-9.91,4.09,8.27,13.53
12.818393230438232,-10.28,7.33,9.03,15.52
12.828763961791992,-9.82,2.65,2.59,10.49
12.838864088058472,-7.49,0.24,0.7,7.52
12.848567962646484,-4.36,-0.82,2.27,4.98
12.877125263214111,-1.93,-0.99,1.34,2.54
12.878076076507568,0.07,0.4,-1.67,1.71
12.878894090652466,2.07,1.28,-2.7,3.63
12.887187957763672,3.79,1.32,-2.34,4.64
12.90236520767212,4.28,0.55,-2.43,4.95
12.908937931060791,3.38,-0.66,-2.57,4.29
12.918939113616943,2.02,-0.88,-1.6,2.72
12.929718971252441,0.61,-0.36,-0.79,1.06
12.939112186431885,-1.03,0.06,-0.63,1.2
12.949450016021729,-2.45,0.5,-0.76,2.61
12.978270053863525,-2.54,0.66,-0.3,2.64
12.979187965393066,-1.47,0.06,-0.13,1.47
12.980006217956543,-0.41,-0.42,-0.44,0.73
12.987793922424316,0.37,-0.35,-0.88,1.01
12.998140096664429,1.14,-0.34,-1.06,1.59
13.009960174560547,1.88,-0.51,-0.94,2.16
13.019925117492676,2.45,-0.59,-1.21,2.79
13.029920101165771,2.55,-0.51,-1.62,3.06
13.039812088012695,2.01,-0.51,-1.7,2.68
13.049729108810425,1.13,-0.42,-1.66,2.05
13.079360008239746,0.36,-0.05,-1.44,1.48
13.080334186553955,-0.15,0.18,-0.73,0.76
13.081191062927246,-0.24,0.28,-0.21,0.42
13.103276252746582,0.09,0.39,-0.24,0.46
13.104567050933838,0.69,0.56,-0.49,1.01
13.117156028747559,1.3,0.95,-0.9,1.84
13.120939254760742,1.73,1.59,-1.72,2.91
13.133194923400879,1.95,2.02,-1.64,3.25
13.138999938964844,2.11,2.25,-1.24,3.32
13.151523113250732,2.3,2.27,-1.26,3.46
13.175255060195923,2.68,2.21,-0.99,3.61
13.176393032073975,3.05,2.29,-0.6,3.86
13.17884111404419,3.61,2.84,-0.15,4.59
13.189127922058105,4.4,3.52,-0.81,5.69
13.199515104293823,5.22,3.78,-1.09,6.53
13.210989952087402,5.62,3.61,-2.81,7.24
13.221036911010742,5.23,3.73,-4.81,8.02
13.23110818862915,4.24,4.62,-4.73,7.85
13.241214036941528,3.17,5.68,-4.04,7.65
13.251235961914062,3.01,6.35,-3.84,8.0
13.28007698059082,4.26,6.61,-4.15,8.89
13.281013011932373,6.34,6.81,-4.37,10.27
13.281843185424805,8.54,7.37,-5.31,12.46
13.303141117095947,10.33,8.11,-7.29,15.02
13.306433200836182,12.22,8.84,-9.56,17.85
13.31489109992981,14.14,8.99,-9.72,19.37
13.321606159210205,14.16,8.01,-8.02,18.13
13.334388256072998,10.18,6.25,-6.8,13.74
13.341187000274658,5.61,5.99,-7.76,11.29
13.35139799118042,4.1,7.69,-6.17,10.67
13.379396915435791,3.91,8.5,-5.07,10.64
13.38051700592041,2.83,6.05,-6.19,9.1
13.381416082382202,1.77,2.26,-6.49,7.09
13.405189990997314,1.22,-0.24,-6.2,6.32
13.408638000488281,3.36,1.61,-5.68,6.79
13.414534091949463,7.54,3.02,-4.3,9.19
13.420484066009521,11.22,1.75,-2.01,11.53
13.434706211090088,12.92,-0.8,-2.8,13.24
13.442012071609497,11.94,-3.59,-4.93,13.4
13.45190715789795,9.68,-5.0,-6.32,12.59
13.482217073440552,7.97,-4.81,-6.43,11.31
13.483363151550293,7.56,-4.43,-5.7,10.45
13.484170913696289,7.95,-4.43,-4.95,10.36
13.502803087234497,8.06,-4.07,-4.07,9.9
13.503619194030762,7.61,-3.45,-3.43,9.03
13.517195224761963,6.75,-3.04,-3.03,7.99
13.522487163543701,5.61,-2.4,-2.53,6.6
13.533612251281738,4.37,-1.52,-1.7,4.92
13.542527198791504,3.34,-0.59,-0.73,3.46
13.553185939788818,2.4,0.43,-0.17,2.44
13.582080125808716,1.37,1.44,0.48,2.04
13.583064079284668,0.36,2.33,1.16,2.62
13.583966255187988,-0.49,2.98,1.58,3.4
13.605478048324585,-1.18,3.4,1.79,4.01
13.608724117279053,-1.55,4.08,1.88,4.75
13.614609241485596,-1.77,5.12,1.75,5.69
13.621652126312256,-2.01,6.39,1.09,6.78
13.63497018814087,-2.45,8.09,0.23,8.45
13.642866134643555,-3.14,9.88,-0.68,10.38
13.653268098831177,-4.41,11.48,-2.07,12.47
13.68411922454834,-6.29,12.47,-3.13,14.31
13.685232162475586,-8.54,12.9,-2.62,15.69
13.686117172241211,-11.02,12.84,-0.71,16.93
13.703141212463379,-14.23,12.22,2.47,18.91
13.70398211479187,-18.08,10.75,4.76,21.56
13.716758251190186,-21.17,7.61,5.12,23.07
13.723344087600708,-24.58,4.48,4.96,25.47
13.73374605178833,-28.62,1.79,4.2,28.98
13.74493408203125,-30.2,0.5,5.34,30.67
13.753519058227539,-25.81,1.85,4.62,26.28
13.784554958343506,-17.41,3.31,1.97,17.83
13.785683155059814,-12.59,3.6,0.37,13.09
13.786545038223267,-7.38,4.79,-2.66,9.19
13.802821159362793,2.04,8.68,5.54,10.49
13.803646087646484,10.93,11.42,12.13,19.92
13.817168235778809,13.66,11.02,2.02,17.66
13.824162006378174,12.22,7.82,-3.96,15.03
13.834217071533203,5.51,3.14,-4.34,7.68
13.844512939453125,-2.12,0.14,-4.12,4.63
13.854207992553711,-6.42,-1.63,-5.58,8.66
13.883722066879272,-8.99,-3.15,-6.32,11.43
13.884791135787964,-11.08,-3.24,-2.43,11.79
13.885616064071655,-12.21,-0.61,2.79,12.53
13.893034934997559,-12.9,4.77,10.23,17.14
13.903069019317627,-12.92,8.61,8.7,17.79
13.913201093673706,-9.65,2.83,2.77,10.43
13.925257205963135,-5.6,-1.41,0.66,5.81
13.934629917144775,-2.91,-1.89,0.57,3.51
13.945457935333252,-0.23,-0.26,-0.71,0.79
13.955153942108154,2.4,0.91,-2.88,3.85
13.985297203063965,4.42,1.37,-3.57,5.84
13.986423015594482,5.06,1.12,-4.19,6.66
13.987200260162354,4.71,0.23,-2.61,5.38
14.003237247467041,3.52,-0.38,-1.0,3.67
14.004533052444458,1.0,-0.45,-0.95,1.45
14.017194032669067,-1.96,0.09,-0.46,2.01
14.025135040283203,-4.14,0.94,0.76,4.31
14.03498911857605,-4.78,1.36,1.23,5.11
14.045780181884766,-3.7,0.97,0.65,3.87
14.05529499053955,-1.6,0.69,0.05,1.74
14.082935094833374,0.16,0.49,-0.36,0.62
14.084167003631592,1.47,0.09,-0.94,1.74
14.08502721786499,2.55,-0.21,-1.59,3.01
14.102675914764404,3.18,-0.09,-1.56,3.54
14.10406494140625,2.96,0.17,-1.13,3.17
14.118561029434204,1.78,0.3,-0.92,2.02
14.12595796585083,0.5,0.45,-0.62,0.91
14.135853052139282,-0.29,0.45,-0.58,0.78
14.146791934967041,-0.5,0.25,-0.53,0.77
14.155908107757568,-0.35,0.03,-0.84,0.91
14.18159008026123,0.0,-0.02,-1.27,1.27
14.182683944702148,0.38,0.11,-1.77,1.81
14.184667110443115,0.67,0.21,-1.96,2.08
14.202621936798096,0.9,0.21,-1.87,2.08
14.204600095748901,1.23,0.19,-2.01,2.36
14.217479228973389,1.79,0.21,-2.01,2.69
14.22658920288086,2.59,0.34,-2.21,3.42
14.236361980438232,3.59,0.7,-1.79,4.07
14.247443199157715,4.5,1.41,-1.37,4.91
14.256972074508667,5.12,2.17,-0.52,5.58
14.286746978759766,5.52,2.78,-0.49,6.19
14.28789210319519,5.65,3.03,-0.82,6.46
14.288741111755371,5.22,3.16,-1.85,6.37
14.302669048309326,4.24,3.53,-3.1,6.32
14.305535078048706,3.25,4.33,-3.59,6.49
14.316946983337402,2.86,5.54,-3.6,7.19
14.32707691192627,3.36,6.6,-3.79,8.31
14.337060928344727,5.03,7.03,-4.64,9.81
14.348194122314453,7.19,7.15,-5.55,11.55
14.357189178466797,8.99,7.57,-6.25,13.31
14.388145923614502,10.57,8.33,-7.92,15.61
14.389311075210571,12.12,9.37,-9.73,18.14
14.390213012695312,13.39,9.9,-10.72,19.8
14.401811122894287,12.69,8.43,-8.94,17.66
14.406093120574951,8.77,6.45,-7.28,13.09
14.417510032653809,5.27,6.82,-8.45,12.07
14.42635703086853,5.63,9.09,-6.19,12.35
14.437735080718994,6.49,8.94,-6.46,12.79
14.448115110397339,5.36,5.05,-7.13,10.25
14.457518100738525,2.68,0.51,-5.42,6.06
14.48559308052063,0.18,-1.38,-5.53,5.7
14.486685037612915,0.58,0.87,-6.32,6.4
14.487543106079102,4.99,2.73,-4.94,7.53
14.501974105834961,9.63,2.5,-1.86,10.12
14.506416082382202,12.24,0.45,-2.36,12.47
14.517807006835938,12.36,-2.62,-4.37,13.36
14.528547048568726,10.79,-4.76,-5.92,13.19
14.53825306892395,8.93,-4.98,-6.53,12.13
14.54832410812378,7.83,-4.48,-6.08,10.87
14.55835509300232,7.56,-4.13,-5.12,10.02
14.588581085205078,7.43,-3.75,-4.15,9.29
14.589632987976074,7.02,-3.29,-3.39,8.46
14.590507984161377,6.39,-2.95,-2.76,7.55
14.59906005859375,5.6,-2.52,-2.19,6.51
14.607311248779297,4.61,-1.88,-1.62,5.23
14.618449211120605,3.53,-1.17,-1.16,3.89
14.629262924194336,2.57,-0.29,-0.6,2.65
14.638659000396729,1.86,0.64,0.13,1.97
14.649662017822266,1.4,1.5,0.68,2.16
14.659111022949219,0.97,2.22,0.89,2.58
14.691163063049316,0.5,3.01,0.98,3.2
14.692312240600586,-0.12,4.35,0.96,4.45
14.693146228790283,-0.83,6.02,0.84,6.13
14.698816061019897,-1.68,7.97,0.51,8.16
14.707767963409424,-2.6,10.34,-0.05,10.66
14.718417167663574,-3.89,12.8,-0.68,13.39
14.729979038238525,-5.98,14.68,-1.2,15.89
14.739511013031006,-8.9,16.02,-1.58,18.39
14.749836921691895,-12.12,16.54,-1.99,20.6
14.759441137313843,-14.95,14.03,-0.68,20.51
14.786638259887695,-18.44,8.91,4.3,20.92
14.787735939025879,-21.77,4.74,6.19,23.12
14.788633108139038,-25.56,1.86,5.32,26.17
14.799098014831543,-28.85,1.34,2.31,28.97
14.809665203094482,-28.32,2.99,2.75,28.6
14.818133115768433,-23.06,4.46,5.4,24.1
14.830920219421387,-18.26,4.05,3.78,19.08
14.839781045913696,-15.77,3.87,1.69,16.32
14.849934101104736,-10.44,6.0,1.19,12.09
14.860298156738281,0.28,10.24,9.05,13.66
14.89096212387085,10.2,12.86,10.91,19.7
14.892064094543457,13.64,13.17,2.01,19.06
14.892925262451172,9.0,6.08,-6.59,12.7
14.898657083511353,0.96,-1.53,-9.57,9.73
14.908915996551514,-5.25,-4.13,-7.26,9.86
14.919034957885742,-10.47,-4.47,-4.41,12.2
14.930936098098755,-14.1,-0.01,1.27,14.15
14.940514087677002,-15.89,9.0,8.12,19.98
14.950568199157715,-14.9,5.04,8.65,17.95
14.960514068603516,-12.22,-0.68,5.68,13.49
14.988810062408447,-7.89,1.6,3.16,8.64
14.989856243133545,-4.41,-0.63,2.07,4.91
14.99072813987732,-1.56,-1.96,0.65,2.58
14.999349117279053,1.3,-0.51,-2.84,3.16
15.009066104888916,4.09,1.34,-5.03,6.62
15.01951003074646,5.97,2.09,-5.31,8.25
15.031435012817383,6.46,1.18,-4.41,7.91
15.041167259216309,5.2,-0.44,-1.78,5.51
15.05107593536377,2.57,-0.53,-0.77,2.73
15.061995029449463,-0.82,0.14,-0.58,1.01
15.09273099899292,-3.77,0.7,-0.21,3.84
15.093849182128906,-5.4,0.96,0.79,5.54
15.094699144363403,-4.95,0.82,0.97,5.11
15.099736213684082,-2.62,0.25,0.32,2.65
15.119747161865234,-0.2,0.17,-0.57,0.62
15.122628211975098,1.34,0.14,-1.2,1.8
15.130739212036133,2.3,0.05,-1.58,2.79
15.142096996307373,2.81,0.08,-1.8,3.33
15.151591062545776,2.82,0.25,-1.25,3.09
15.162322998046875,2.2,0.32,-0.77,2.35
15.190624237060547,1.46,0.38,-0.74,1.68
15.191609144210815,1.09,0.39,-0.83,1.42
15.192503929138184,0.9,0.3,-1.43,1.71
15.200253963470459,0.73,0.26,-1.43,1.62
15.21051025390625,0.42,0.34,-1.26,1.37
15.222262144088745,0.22,0.41,-0.83,0.95
15.23238205909729,0.25,0.55,-0.82,1.01
15.242042064666748,0.61,0.82,-0.96,1.4
15.252533912658691,1.27,1.0,-1.09,1.94
15.262933254241943,1.98,0.97,-0.93,2.39
15.293333053588867,2.64,0.81,-1.12,2.97
15.294342994689941,3.39,0.72,-1.55,3.79
15.295073986053467,4.2,0.97,-1.81,4.67
15.30092191696167,4.74,1.56,-1.23,5.13
15.319581985473633,4.98,2.46,-0.62,5.58
15.32219123840332,5.03,3.32,-0.84,6.08
15.33261513710022,5.04,3.62,-1.43,6.36
15.341462135314941,4.86,3.64,-2.58,6.59
15.352771043777466,4.59,3.98,-3.6,7.06
15.36338996887207,4.48,4.71,-3.94,7.6
15.390583038330078,4.86,5.87,-4.4,8.79
15.391606092453003,5.91,7.06,-5.16,10.55
15.392455101013184,7.53,7.85,-5.4,12.14
15.401405096054077,9.21,8.24,-5.44,13.5
15.412061214447021,10.91,8.38,-7.03,15.44
15.423476219177246,12.87,8.27,-9.31,17.9
15.433395147323608,14.73,8.29,-9.34,19.31
15.443465232849121,12.9,7.8,-7.57,16.86
15.4532790184021,7.16,7.22,-9.79,14.11
15.463750123977661,3.74,8.6,-8.13,12.41
15.495687007904053,2.16,9.92,-7.5,12.62
15.496598243713379,0.8,8.11,-7.21,10.88
15.497445106506348,0.49,3.73,-5.01,6.26
15.522364139556885,2.31,0.84,-5.09,5.65
15.526337146759033,6.38,2.36,-3.23,7.53
15.53159213066101,10.13,2.81,-2.67,10.84
15.532870054244995,12.01,0.72,-3.7,12.58
15.549790143966675,11.62,-2.0,-5.35,12.94
15.553908109664917,10.31,-2.97,-6.1,12.34
15.566667079925537,8.89,-2.52,-6.07,11.05
15.591897010803223,8.04,-2.65,-5.73,10.22
15.592988967895508,8.02,-3.54,-5.1,10.14
15.593861103057861,8.25,-3.97,-4.41,10.16
15.602481126785278,8.13,-3.71,-3.84,9.72
15.612955093383789,7.71,-3.47,-3.3,9.07
15.624418258666992,7.05,-3.15,-2.78,8.2
15.63463807106018,6.12,-2.44,-2.16,6.93
15.644398212432861,4.98,-1.49,-1.78,5.49
15.654367923736572,3.75,-0.53,-1.53,4.08
15.665077209472656,2.49,0.32,-0.99,2.69
15.694650173187256,1.34,0.87,-0.25,1.61
15.69559621810913,0.43,1.42,0.45,1.55
15.696404933929443,-0.16,2.35,0.98,2.55
15.703306198120117,-0.49,3.51,1.41,3.81
15.713293075561523,-0.91,4.76,1.66,5.12
15.723576068878174,-1.65,6.05,1.5,6.44
15.735355138778687,-2.54,7.02,0.99,7.53
15.745293140411377,-3.23,7.88,0.63,8.53
15.754941940307617,-3.88,9.13,0.2,9.92
15.765405178070068,-4.94,10.65,-0.71,11.76
15.793852090835571,-6.71,12.11,-1.67,13.94
15.794847011566162,-9.09,13.18,-2.19,16.15
15.795675039291382,-12.1,13.4,-1.63,18.12
15.804346084594727,-15.72,11.9,1.27,19.75
15.816399097442627,-19.43,8.94,4.02,21.76
15.824035167694092,-22.28,5.97,6.12,23.86
15.835623264312744,-24.95,3.92,5.97,25.95
15.846988201141357,-26.62,2.35,4.6,27.11
15.855796098709106,-26.15,1.98,3.25,26.42
15.866072177886963,-21.07,3.5,2.43,21.49
15.894452095031738,-16.22,3.82,3.11,16.95
15.895336151123047,-13.98,3.35,1.31,14.43
15.896120071411133,-11.0,4.7,-0.39,11.96
15.904413223266602,-2.7,8.59,4.88,10.24
15.91444706916809,7.93,11.87,12.9,19.24
15.926496982574463,12.82,11.67,2.84,17.56
15.936126232147217,12.02,8.39,-5.02,15.49
15.94749116897583,5.99,2.29,-5.66,8.55
15.95603895187378,-1.14,-1.26,-4.44,4.75
15.966443061828613,-5.32,-2.65,-5.22,7.91
15.996554136276245,-8.42,-3.49,-6.23,11.04
15.99751615524292,-10.87,-2.63,-2.23,11.4
15.998370170593262,-11.67,0.71,2.6,11.97
16.018490076065063,-12.4,7.7,9.16,17.23
16.019326210021973,-11.53,5.24,6.84,14.39
16.035990238189697,-10.16,0.84,2.73,10.55
16.037806034088135,-6.46,0.68,0.72,6.53
16.049031257629395,-4.07,-1.74,1.66,4.72
16.0563702583313,-1.62,-1.56,0.99,2.45
16.066827058792114,0.57,-0.14,-1.86,1.95
16.09194803237915,2.9,1.75,-3.43,4.82
16.09307622909546,4.87,2.27,-3.24,6.27
16.095060110092163,5.61,1.02,-2.93,6.41
16.105138063430786,4.27,-0.76,-3.33,5.46
16.116021156311035,2.45,-1.26,-1.65,3.21
16.127031087875366,0.99,-0.87,-0.2,1.33
16.13673496246338,-0.94,-0.29,0.25,1.01
16.147032260894775,-2.99,0.5,0.13,3.03
16.157296180725098,-3.87,1.14,-0.01,4.03
16.16700005531311,-3.11,1.05,0.33,3.29
16.191915035247803,-1.38,0.23,-0.25,1.42
16.192865133285522,0.43,-0.27,-1.05,1.16
16.19547700881958,2.05,-0.37,-1.69,2.68
16.205618143081665,3.3,-0.44,-2.14,3.95
16.21583104133606,4.14,-0.34,-2.08,4.64
16.2276291847229,3.92,-0.19,-2.06,4.43
16.237271070480347,2.35,-0.05,-1.61,2.84
16.24815607070923,0.61,0.28,-0.84,1.07
16.25735306739807,-0.52,0.74,-0.59,1.07
16.268054962158203,-0.91,1.16,-0.48,1.55
16.294575214385986,-0.76,1.4,-0.69,1.73
16.29552125930786,0.03,1.92,-0.73,2.05
16.29635524749756,1.05,2.07,-0.69,2.42
16.3062961101532,2.04,1.8,-0.97,2.88
16.31684923171997,2.82,1.57,-0.98,3.37
16.32902717590332,3.27,1.56,-1.22,3.82
16.338250160217285,3.6,1.69,-1.06,4.11
16.347676038742065,3.98,1.74,-0.66,4.39
16.357784032821655,4.67,1.75,-0.72,5.03
16.36790704727173,5.44,1.87,-0.99,5.83
16.39673113822937,5.53,2.37,-1.64,6.23
16.397584915161133,4.93,2.98,-3.11,6.54
16.398446083068848,4.03,3.5,-4.18,6.77
16.41933298110962,3.29,4.39,-4.24,6.93
16.422007083892822,3.26,5.87,-4.45,8.05
16.433593034744263,4.28,7.15,-4.77,9.6
16.4382061958313,6.03,7.95,-5.06,11.18
16.449294090270996,7.77,8.82,-5.29,12.88
16.458463191986084,9.24,9.97,-5.94,14.83
16.46849822998047,10.77,10.75,-7.51,16.96
16.492947101593018,12.72,10.35,-9.13,18.76
16.49406909942627,14.22,7.93,-8.23,18.24
16.497217178344727,11.24,4.58,-6.37,13.7
16.507524967193604,5.47,2.98,-7.53,9.77
16.51730513572693,1.47,4.32,-8.59,9.72
16.529964923858643,-0.47,6.31,-8.35,10.47
16.539073944091797,-1.07,7.05,-5.12,8.77
16.549376964569092,-0.68,5.05,-5.14,7.23
16.559109210968018,2.01,2.63,-5.52,6.43
16.569220066070557,5.99,2.61,-4.34,7.84
16.59161615371704,11.97,0.03,-3.88,12.58
16.594265937805176,12.7,-2.22,-4.73,13.73
16.604534149169922,11.58,-4.05,-5.71,13.53
16.61445713043213,9.61,-4.29,-6.05,12.13
16.626452922821045,7.94,-3.8,-5.66,10.46
16.63619112968445,6.91,-3.91,-4.84,9.29
16.647114038467407,6.57,-4.06,-4.09,8.73
16.656187057495117,6.44,-3.53,-3.27,8.03
16.667069911956787,6.18,-2.95,-2.79,7.39
16.69830322265625,5.96,-2.74,-2.58,7.04
16.699158191680908,5.8,-2.57,-2.34,6.76
16.70001792907715,5.65,-2.19,-2.21,6.45
16.7193021774292,5.26,-1.65,-1.99,5.86
16.720036029815674,4.5,-1.03,-1.6,4.88
16.736329078674316,3.65,-0.47,-1.34,3.91
16.740209102630615,2.9,0.05,-1.14,3.11
16.74907112121582,2.2,0.71,-0.78,2.43
16.75656795501709,1.5,1.67,-0.45,2.28
16.766792058944702,0.77,3.09,-0.03,3.18
16.794679164886475,-0.03,4.73,0.35,4.74
16.795822143554688,-0.97,6.45,0.25,6.52
16.796646118164062,-1.91,8.17,-0.33,8.39
16.80578899383545,-2.79,9.6,-0.71,10.02
16.816858053207397,-3.86,10.84,-1.1,11.55
16.827813148498535,-5.43,12.23,-1.92,13.51
16.838109970092773,-7.4,13.56,-2.29,15.61
16.848196029663086,-9.24,14.83,-3.71,17.86
16.857765197753906,-11.75,12.93,-1.97,17.58
16.867525100708008,-15.39,8.45,4.37,18.09
16.899313926696777,-19.55,6.0,5.52,21.18
16.90029525756836,-23.18,4.07,5.33,24.13
16.901151180267334,-26.44,2.87,4.59,26.98
16.919007062911987,-25.12,2.73,5.33,25.82
16.919815063476562,-19.41,3.29,6.28,20.66
16.936002254486084,-15.45,2.64,4.65,16.34
16.938167095184326,-13.95,2.32,3.29,14.51
16.949571132659912,-12.15,3.77,2.96,13.06
16.95793104171753,-5.57,7.48,4.89,10.53
16.968050003051758,4.78,11.31,12.39,17.44
16.999640941619873,11.96,11.63,9.71,19.3
17.000731945037842,11.72,8.18,-2.78,14.56
17.001602172851562,6.17,2.51,-5.58,8.68
17.01916217803955,-1.17,-0.58,-4.67,4.84
17.019986152648926,-6.29,-1.78,-7.87,10.23
17.036041259765625,-10.9,-2.3,-8.46,13.98
17.039502143859863,-14.14,0.24,-1.0,14.17
17.04946208000183,-15.37,7.18,6.05,18.01
17.058938026428223,-13.13,4.21,6.15,15.09
17.068722248077393,-11.38,0.0,5.31,12.55
17.09543800354004,-8.89,1.78,2.99,9.54
17.096636056900024,-5.89,0.08,2.26,6.3
17.097520112991333,-3.02,-2.38,2.31,4.48
17.119015216827393,-0.6,-2.07,-0.3,2.17
17.11983823776245,2.13,0.12,-3.78,4.34
17.13509225845337,5.12,1.91,-4.19,6.88
17.13879108428955,6.89,2.91,-3.89,8.43
17.149436950683594,5.78,0.87,-3.95,7.05
17.15904712677002,3.52,-0.49,-1.28,3.77
17.169023036956787,1.27,-0.42,0.13,1.34
17.201714038848877,-1.52,-0.1,0.21,1.53
17.202823162078857,-4.31,0.23,0.16,4.31
17.203585147857666,-5.82,0.62,0.7,5.89
17.219205141067505,-5.24,0.71,1.08,5.39
17.220039129257202,-3.04,0.31,0.78,3.15
17.236470222473145,-0.84,0.17,0.3,0.9
17.2396080493927,0.82,0.18,-0.61,1.03
17.24927520751953,2.06,-0.06,-0.92,2.25
17.25849413871765,3.01,-0.26,-1.22,3.25
17.270029067993164,3.24,-0.29,-1.52,3.59
17.294750213623047,2.35,-0.34,-1.55,2.83
17.29581308364868,0.77,-0.2,-1.06,1.32
17.29843521118164,-0.46,0.21,-0.54,0.73
17.30843496322632,-0.97,0.4,-0.32,1.09
17.318591117858887,-0.67,0.38,-0.32,0.83
17.330359935760498,0.09,0.39,-0.42,0.58
17.34022092819214,0.9,0.36,-0.75,1.22
17.350354194641113,1.57,0.32,-1.25,2.03
17.360814094543457,2.01,0.34,-1.32,2.42
17.370667934417725,2.16,0.56,-1.81,2.87
17.402610063552856,2.18,0.92,-2.03,3.11
17.403789043426514,2.04,1.13,-1.91,3.01
17.404630184173584,1.56,1.12,-1.8,2.63
17.41766905784607,1.36,1.17,-1.78,2.52
17.41899013519287,1.77,1.36,-1.81,2.87
17.43674898147583,2.53,1.64,-1.23,3.25
17.440572261810303,3.25,2.28,-0.53,4.0
17.44937014579773,3.95,2.94,-0.43,4.94
17.46170711517334,4.64,2.82,-0.45,5.44
17.47084903717041,4.84,2.42,-2.4,5.91
17.504074096679688,4.34,2.38,-3.76,6.21
17.505146980285645,3.38,3.2,-3.71,5.95
17.50599193572998,2.61,4.74,-3.37,6.37
17.515142917633057,2.79,6.11,-3.07,7.38
17.519646167755127,4.03,6.65,-2.73,8.24
17.534982204437256,5.79,6.73,-2.77,9.29
17.539989948272705,7.56,7.01,-3.75,10.97
17.551420211791992,9.07,7.71,-5.25,13.01
17.561897039413452,10.55,8.97,-6.99,15.51
17.571646213531494,12.51,9.9,-8.93,18.28
17.605041980743408,14.26,8.84,-9.96,19.51
17.6061110496521,13.43,5.87,-8.89,17.14
17.606956005096436,9.09,4.44,-8.4,13.14
17.617125034332275,5.84,5.66,-9.47,12.48
17.6202449798584,5.48,8.56,-6.38,12.0
17.63413906097412,4.55,8.89,-4.19,10.83
17.642416954040527,2.63,6.01,-5.52,8.57
17.651937007904053,0.83,2.11,-5.72,6.15
17.662882089614868,-0.71,-0.18,-5.77,5.81
17.672297954559326,-0.18,0.99,-6.51,6.58
17.70392417907715,4.05,2.64,-4.2,6.4
17.705002069473267,8.52,2.0,-0.96,8.8
17.70579195022583,10.93,-0.55,-2.24,11.17
17.715342044830322,11.15,-3.5,-4.42,12.49
17.720786094665527,9.92,-5.43,-5.59,12.61
17.73377513885498,8.47,-5.64,-5.85,11.73
17.74265193939209,7.8,-5.32,-5.34,10.84
17.75256609916687,7.79,-5.62,-4.55,10.62
17.763001918792725,7.55,-5.55,-3.88,10.14
17.772515058517456,6.84,-4.62,-3.41,8.93
17.80106496810913,6.17,-3.59,-2.97,7.73
17.802196979522705,5.8,-2.69,-2.42,6.83
17.803044080734253,5.5,-1.7,-1.92,6.06
17.818438053131104,5.03,-0.79,-1.75,5.38
17.821298122406006,4.39,-0.17,-1.46,4.62
17.832621097564697,3.68,0.31,-0.97,3.81
17.843176126480103,3.06,0.89,-0.6,3.24
17.85314106941223,2.67,1.5,-0.43,3.09
17.86330795288086,2.24,2.31,-0.4,3.24
17.873382091522217,1.58,3.79,-0.25,4.11
17.902918100357056,0.51,5.93,-0.01,5.95
17.904004096984863,-0.97,8.19,0.05,8.24
17.90481996536255,-2.64,10.11,0.09,10.44
17.916929244995117,-4.29,11.78,-0.09,12.53
17.92278504371643,-6.05,13.49,-0.8,14.8
17.932645082473755,-7.88,15.11,-1.1,17.07
17.94406223297119,-10.06,15.71,-1.57,18.72
17.95409607887268,-12.58,14.6,-1.26,19.31
17.96403217315674,-15.46,10.69,1.07,18.82
17.973499059677124,-19.28,6.78,4.08,20.84
18.00454306602478,-22.86,3.58,6.0,23.9
18.005613088607788,-26.13,1.43,5.56,26.75
18.006487131118774,-26.87,1.07,4.76,27.3
18.018173217773438,-22.37,2.36,3.92,22.83
18.02258014678955,-16.16,4.1,1.9,16.77
18.034276962280273,-11.32,4.44,0.32,12.16
18.044088125228882,-9.6,3.1,0.64,10.1
18.054162979125977,-9.03,2.49,-1.98,9.57
18.064556121826172,-4.09,5.48,0.5,6.85
18.074517250061035,4.4,9.72,9.6,14.35
18.104769229888916,10.68,11.42,8.05,17.58
18.105868101119995,11.15,10.34,1.24,15.25
18.10675621032715,5.17,5.94,-3.03,8.43
18.11528205871582,-3.17,1.8,-6.27,7.25
18.123004913330078,-7.25,-1.03,-5.41,9.1
18.133978128433228,-9.3,-2.97,-4.31,10.67
18.145387172698975,-10.62,-2.52,-0.36,10.92
18.15501308441162,-10.53,0.19,2.81,10.9
18.165334224700928,-10.12,4.29,5.97,12.5
18.175409078598022,-9.77,5.61,6.78,13.14
18.206096172332764,-8.38,1.89,3.72,9.36
18.207187175750732,-5.95,0.43,0.34,5.97
18.20807123184204,-4.66,-1.6,0.91,5.01
18.21505904197693,-2.59,-0.82,1.83,3.27
18.223741054534912,-0.31,-0.22,-1.1,1.16
18.233866214752197,2.25,1.15,-2.75,3.73
18.24640417098999,4.29,2.23,-2.61,5.49
18.255503177642822,4.96,1.49,-2.78,5.87
18.265661239624023,4.36,-0.15,-2.42,4.98
18.2758150100708,2.93,-1.05,-1.25,3.35
18.30787205696106,0.54,-0.61,-0.77,1.12
18.30898404121399,-2.42,0.41,-0.58,2.52
18.309802055358887,-4.34,1.33,-0.09,4.54
18.315185070037842,-4.16,1.3,0.32,4.37
18.324231147766113,-2.48,0.15,-0.07,2.48
18.33594012260437,-0.58,-0.32,-0.41,0.77
18.346890926361084,0.66,-0.35,-1.02,1.26
18.356040954589844,1.58,-0.57,-1.44,2.21
18.365957260131836,2.51,-0.66,-1.71,3.1
18.37602424621582,2.85,-0.59,-1.84,3.44
18.40777015686035,2.25,-0.44,-1.68,2.84
18.408822059631348,1.03,-0.24,-1.52,1.85
18.409715175628662,-0.03,0.07,-1.25,1.25
18.415117263793945,-0.53,0.22,-0.93,1.09
18.424936056137085,-0.48,0.17,-0.99,1.11
18.434906005859375,-0.09,0.02,-1.28,1.28
18.44686222076416,0.42,-0.26,-1.55,1.62
18.45644998550415,0.83,-0.5,-1.75,2.0
18.466586112976074,1.01,-0.54,-1.78,2.11
18.47707223892212,1.13,-0.31,-1.31,1.75
18.506481170654297,1.21,0.21,-1.19,1.71
18.507573127746582,1.19,0.98,-1.24,1.97
18.508434057235718,1.33,1.68,-1.13,2.42
18.51531410217285,1.66,1.99,-0.81,2.71
18.525504112243652,2.14,2.06,-1.07,3.15
18.537001132965088,2.91,1.79,-0.57,3.46
18.5477032661438,4.01,1.43,-0.22,4.26
18.556926250457764,5.15,1.36,-0.9,5.4
18.567261219024658,5.89,1.77,-1.37,6.3
18.577397108078003,5.45,2.5,-1.96,6.3
18.607842922210693,4.14,3.23,-2.74,5.92
18.60899591445923,2.81,3.96,-3.56,6.02
18.609861135482788,1.88,4.82,-3.74,6.38
18.61584210395813,1.71,5.92,-3.42,7.04
18.625888109207153,2.72,6.73,-3.33,7.98
18.636105060577393,4.83,7.14,-3.81,9.42
18.64795708656311,7.3,7.73,-4.77,11.65
18.657331943511963,9.35,8.65,-5.95,14.05
18.66800808906555,10.42,9.97,-7.9,16.44
18.67834997177124,11.65,11.02,-9.93,18.86
18.710031032562256,13.31,9.86,-10.39,19.55
18.711117267608643,13.73,6.2,-8.95,17.52
18.711940050125122,10.35,3.59,-7.29,13.15
18.716458082199097,5.66,4.25,-8.24,10.86
18.733545064926147,4.17,7.28,-7.55,11.28
18.73644709587097,4.55,9.61,-4.71,11.62
18.749714136123657,3.75,7.74,-4.33,9.62
18.758317947387695,2.34,3.4,-5.75,7.07
18.768290042877197,0.5,-0.46,-5.18,5.22
18.77928924560547,-0.28,-0.66,-4.8,4.85
18.811023235321045,2.16,1.28,-5.49,6.03
18.81197714805603,6.46,1.27,-3.07,7.26
18.81279993057251,9.95,-0.28,-2.09,10.17
18.81693124771118,11.75,-2.17,-3.54,12.46
18.827263116836548,11.75,-4.29,-5.22,13.55
18.83739709854126,10.6,-5.88,-6.7,13.85
18.849442958831787,9.16,-6.37,-7.09,13.21
18.85866403579712,8.02,-6.1,-6.38,11.92
18.869100093841553,7.31,-5.42,-5.32,10.54
18.879318237304688,6.79,-4.5,-4.21,9.16
18.911678075790405,6.23,-3.66,-3.27,7.93
18.913084983825684,5.59,-3.04,-2.88,6.98
18.913949966430664,5.17,-2.38,-2.56,6.24
18.93855094909668,4.95,-1.51,-2.01,5.55
18.94221806526184,4.58,-0.69,-1.54,4.88
18.94779109954834,3.8,-0.26,-1.23,4.0
18.94916009902954,2.95,0.02,-0.83,3.06
18.966642141342163,2.38,0.73,-0.43,2.52
18.970341205596924,2.0,1.81,-0.29,2.71
18.982611179351807,1.4,3.08,-0.22,3.39
19.006843090057373,0.5,4.72,-0.05,4.74
19.00803518295288,-0.63,6.8,-0.01,6.82
19.008889198303223,-1.89,9.32,-0.16,9.51
19.018132209777832,-3.23,12.05,-0.39,12.48
19.03077006340027,-4.89,14.41,-0.83,15.23
19.039124011993408,-7.12,16.06,-1.23,17.61
19.050580978393555,-9.77,17.11,-1.07,19.73
19.060413122177124,-12.39,16.36,-2.18,20.63
19.070117950439453,-14.72,12.21,-1.92,19.22
19.081139087677002,-17.61,6.62,1.68,18.88
19.110352039337158,-20.97,2.89,5.67,21.91
19.111337184906006,-25.1,1.71,6.97,26.1
19.112171173095703,-28.51,2.35,5.84,29.19
19.119075059890747,-27.02,2.87,5.47,27.71
19.1337571144104,-19.79,3.11,4.79,20.59
19.138853073120117,-12.71,3.7,0.92,13.26
19.150577068328857,-8.98,3.26,0.79,9.58
19.160491943359375,-7.41,2.67,-3.57,8.64
19.17054319381714,-1.96,5.64,-2.62,6.52
19.180938243865967,8.16,11.46,11.91,18.43
19.210861206054688,14.72,13.21,13.31,23.83
19.211822032928467,14.53,10.05,0.08,17.66
19.212643146514893,7.82,4.86,-2.8,9.62
19.219286918640137,-2.4,0.7,-5.4,5.95
19.229433059692383,-8.55,-1.62,-6.54,10.88
19.239241123199463,-12.42,-3.52,-6.61,14.5
19.251399040222168,-14.58,-2.18,-1.7,14.83
19.260818004608154,-15.81,5.34,7.39,18.25
19.271347045898438,-13.72,5.43,7.14,16.39
19.281658172607422,-11.41,0.34,6.82,13.29
19.30991506576538,-9.41,1.33,3.56,10.14
19.310882091522217,-6.29,1.38,0.25,6.44
19.311703205108643,-4.49,-1.18,0.36,4.65
19.31984806060791,-2.53,-1.87,1.05,3.31
19.331536054611206,0.02,-1.27,-1.53,1.98
19.341567039489746,3.07,0.7,-3.31,4.56
19.3511860370636,5.69,1.83,-3.32,6.83
19.36168622970581,6.82,1.59,-4.05,8.08
19.371771097183228,5.81,0.12,-3.45,6.75
19.38154125213623,3.15,-0.97,-1.06,3.46
19.414011001586914,0.16,-0.58,-0.3,0.67
19.41493010520935,-2.77,0.05,-0.41,2.8
19.415739059448242,-4.87,0.79,-0.04,4.93
19.434818029403687,-5.13,1.1,-0.09,5.24
19.43827199935913,-3.41,0.4,-0.45,3.46
19.447931051254272,-1.15,-0.13,-0.45,1.24
19.45192313194275,0.68,0.08,-1.08,1.27
19.46553611755371,2.03,0.02,-1.85,2.74
19.472166061401367,3.2,-0.15,-1.92,3.73
19.481719970703125,3.82,-0.19,-1.88,4.26
19.513469219207764,3.21,-0.16,-1.78,3.67
19.51437211036682,1.56,-0.06,-1.39,2.09
19.515188217163086,-0.09,0.2,-0.95,0.97
19.532504081726074,-1.13,0.72,-0.51,1.43
19.533720016479492,-1.37,1.36,-0.06,1.93
19.54940414428711,-1.06,1.44,0.02,1.78
19.552720069885254,-0.39,1.23,-0.05,1.29
19.566254138946533,0.21,1.17,-0.28,1.22
19.572951078414917,0.89,1.07,-0.71,1.56
19.582219123840332,1.7,0.91,-0.99,2.16
19.608870029449463,2.24,0.73,-1.24,2.66
19.60964822769165,2.39,0.57,-1.55,2.9
19.61125898361206,2.46,0.39,-1.59,2.95
19.62143611907959,2.62,0.27,-1.56,3.06
19.633268117904663,2.98,0.31,-1.81,3.5
19.64263105392456,3.51,0.61,-1.66,3.93
19.65260910987854,4.12,1.19,-1.05,4.41
19.663074016571045,4.54,2.06,-1.19,5.12
19.672938108444214,4.86,2.79,-1.46,5.79
19.682934045791626,4.94,2.98,-1.94,6.08
19.71457815170288,4.45,2.94,-3.06,6.14
19.715217113494873,3.55,3.23,-3.72,6.07
19.71578311920166,2.8,3.98,-3.86,6.21
19.73375105857849,2.84,5.03,-3.59,6.8
19.737028121948242,3.89,5.9,-3.83,8.03
19.749345064163208,5.49,6.62,-4.0,9.48
19.753304958343506,7.11,7.66,-4.84,11.51
19.765464067459106,8.46,9.0,-6.3,13.86
19.773982048034668,9.75,10.2,-7.55,16.0
19.783486127853394,11.37,9.96,-8.4,17.29
19.82180905342102,12.12,7.32,-8.15,16.33
19.822834014892578,9.7,4.61,-7.42,13.05
19.82365322113037,5.32,4.45,-8.54,11.0
19.831685066223145,3.13,6.49,-7.82,10.63
19.83250403404236,3.19,8.69,-5.64,10.83
19.852785110473633,3.18,8.36,-6.15,10.85
19.855905055999756,3.16,4.59,-6.47,8.53
19.86566925048828,2.98,0.41,-5.16,5.97
19.874320030212402,2.72,-0.85,-3.58,4.57
19.884593963623047,3.14,-0.44,-4.92,5.85
19.913649082183838,5.0,-0.5,-4.75,6.91
19.914714097976685,7.18,-0.81,-3.57,8.05
19.915535926818848,8.77,-1.24,-3.64,9.57
19.935959100723267,9.54,-2.34,-4.11,10.64
19.937204122543335,9.55,-3.64,-4.67,11.23
19.949610233306885,9.14,-4.6,-5.22,11.48
19.954795122146606,8.66,-4.98,-5.39,11.35
19.966238021850586,8.24,-4.91,-5.11,10.86
19.975553035736084,7.75,-4.57,-4.53,10.07
19.985326051712036,7.0,-4.07,-3.88,8.97
20.016040086746216,6.23,-3.42,-3.18,7.78
20.01718306541443,5.74,-2.49,-2.46,6.72
20.018013954162598,5.48,-1.33,-1.88,5.94
20.035515069961548,5.13,-1.54,-1.54,5.57
20.036291122436523,4.67,-0.51,-0.98,4.79
20.051087141036987,3.87,0.27,-0.44,3.9
20.05336093902588,2.87,0.92,0.14,3.01
20.067790031433105,1.93,1.5,0.72,2.54
20.070367097854614,1.32,1.84,1.2,2.56
20.08241319656372,0.98,2.34,1.54,2.96
20.089384078979492,0.68,3.34,1.76,3.83
20.123126983642578,0.23,4.67,1.63,4.95
20.124011039733887,-0.42,6.22,1.21,6.35
20.124853134155273,-1.16,8.06,0.63,8.16
20.131741046905518,-2.02,10.23,-0.15,10.42
20.13807201385498,-3.43,12.51,-1.48,13.05
20.148207187652588,-5.48,14.09,-2.6,15.34
20.159746170043945,-7.67,14.28,-3.37,16.55
20.16977310180664,-9.77,14.19,-4.39,17.77
20.180586099624634,-13.74,12.75,1.45,18.8
20.189888954162598,-18.54,10.98,5.55,22.25
20.213151931762695,-23.28,8.22,5.43,25.27
20.214282989501953,-27.86,4.66,4.26,28.56
20.21834421157837,-30.31,1.11,4.72,30.69
20.23801898956299,-29.23,0.05,3.29,29.41
20.23881196975708,-23.09,0.51,3.05,23.29
20.24975609779358,-16.97,1.81,2.33,17.22
20.26055908203125,-11.51,4.17,-1.05,12.28
20.270158052444458,-2.42,7.79,3.11,8.72
20.280686140060425,7.8,11.15,13.2,18.95
20.290791988372803,13.01,11.81,5.72,18.47
20.322755098342896,12.98,9.23,-6.85,17.33
20.323857069015503,8.65,4.79,-3.78,10.58
20.324697017669678,0.45,1.06,-4.4,4.54
20.341556072235107,-6.29,-0.97,-9.35,11.31
20.342173099517822,-11.25,-2.01,-8.7,14.36
20.34923219680786,-13.12,-0.7,-0.79,13.16
20.361144065856934,-12.73,1.83,6.04,14.2
20.370760917663574,-11.69,5.28,7.78,15.0
20.38142704963684,-10.27,3.02,6.53,12.53
20.390942096710205,-9.77,0.84,3.45,10.39
20.415575981140137,-6.28,1.82,1.51,6.71
20.41672420501709,-3.58,-0.81,0.98,3.79
20.41951322555542,-2.01,-2.14,0.93,3.07
20.435201168060303,-0.5,-1.24,-0.93,1.62
20.439754009246826,1.4,0.96,-2.72,3.2
20.44989824295044,3.46,2.4,-2.78,5.04
20.461963176727295,4.95,1.65,-2.64,5.84
20.471224069595337,5.05,-0.27,-3.9,6.38
20.4815092086792,4.07,-1.33,-2.35,4.88
20.492120265960693,2.56,-1.12,-0.95,2.95
20.516619205474854,0.0,-0.19,-0.7,0.72
20.517842054367065,-2.52,0.6,-1.08,2.8
20.520061016082764,-3.45,1.05,-0.72,3.67
20.53431224822998,-2.81,0.72,-0.08,2.9
20.540459156036377,-1.54,0.04,0.08,1.54
20.551547050476074,-0.19,-0.18,-0.35,0.43
20.56283712387085,1.23,-0.38,-0.7,1.46
20.579642057418823,3.01,-0.05,-1.15,3.22
20.588529109954834,2.57,0.18,-1.33,2.89
20.62144708633423,1.3,0.17,-1.45,1.95
20.622602939605713,0.01,0.29,-1.07,1.1
20.623417139053345,-0.74,0.58,-0.88,1.28
20.631351947784424,-1.07,0.72,-0.83,1.53
20.63725709915161,-0.96,0.93,-0.76,1.53
20.65162205696106,-0.41,1.1,-0.52,1.28
20.65772008895874,0.28,1.03,-0.88,1.38
20.669393062591553,1.11,1.02,-1.14,1.89
20.679352045059204,1.85,1.04,-1.37,2.52
20.689412117004395,2.42,0.98,-1.46,2.99
20.717129230499268,2.75,0.77,-1.4,3.18
20.718181133270264,2.96,0.77,-1.59,3.44
20.71896505355835,3.27,0.96,-1.78,3.84
20.735721111297607,3.67,1.24,-1.23,4.06
20.73797607421875,4.09,1.64,-0.85,4.48
20.753221035003662,4.54,2.04,-1.32,5.14
20.758196115493774,4.93,2.35,-1.68,5.71
20.769915103912354,4.86,2.76,-3.09,6.38
20.779932022094727,4.29,3.42,-4.18,6.89
20.789817094802856,3.61,4.48,-4.19,7.11
20.820001125335693,3.41,5.94,-3.96,7.91
20.821120262145996,4.28,7.19,-4.09,9.31
20.821962118148804,6.06,8.06,-3.87,10.8
20.83584213256836,7.85,8.92,-4.64,12.75
20.83836793899536,9.13,10.14,-6.34,15.04
20.850404262542725,10.52,11.3,-8.33,17.54
20.860628128051758,12.39,10.87,-10.56,19.57
20.86979103088379,14.26,7.76,-10.29,19.22
20.88053798675537,12.01,3.96,-8.41,15.18
20.891207218170166,6.49,2.85,-9.54,11.88
20.921069145202637,3.17,5.14,-7.98,10.0
20.922208070755005,1.41,8.12,-6.99,10.8
20.923012256622314,0.28,7.88,-7.2,10.67
20.93275809288025,0.7,4.42,-6.32,7.74
20.93898606300354,3.57,1.4,-4.26,5.73
20.950988054275513,6.75,0.33,-3.89,7.79
20.961802005767822,9.42,-0.47,-3.46,10.04
20.970945119857788,10.97,-2.17,-3.4,11.68
20.98152494430542,11.12,-3.94,-4.32,12.56
20.991502046585083,10.18,-4.62,-5.44,12.43
21.02205801010132,8.98,-4.26,-6.2,11.71
21.023158073425293,8.23,-4.17,-6.26,11.14
21.02397608757019,7.91,-4.38,-5.8,10.74
21.032446146011353,7.69,-4.2,-5.12,10.14
21.039895057678223,7.31,-3.52,-4.4,9.22
21.051294088363647,6.67,-2.94,-3.65,8.15
21.061810970306396,5.88,-2.81,-3.07,7.2
21.071214199066162,5.2,-2.58,-2.83,6.45
21.0812029838562,4.74,-1.9,-2.58,5.72
21.091739177703857,4.36,-1.07,-2.2,4.99
21.118831157684326,3.82,-0.42,-1.73,4.21
21.120018005371094,3.11,0.19,-1.17,3.32
21.120852947235107,2.51,0.86,-0.72,2.74
21.135930061340332,1.97,1.7,-0.53,2.65
21.140157222747803,1.35,3.09,-0.27,3.38
21.151834964752197,0.53,5.1,-0.05,5.12
21.160497188568115,-0.51,7.24,-0.04,7.25
21.17215609550476,-1.71,9.45,-0.25,9.6
21.1823251247406,-3.03,11.64,-0.48,12.03
21.192965984344482,-4.78,13.6,-1.08,14.45
21.221083164215088,-6.99,15.14,-1.39,16.73
21.22223424911499,-9.19,16.43,-1.65,18.89
21.223051071166992,-11.64,16.14,-3.09,20.13
21.23298692703247,-14.76,11.64,0.4,18.8
21.240801095962524,-18.15,6.78,3.9,19.76
21.251029014587402,-21.69,3.2,6.25,22.79
21.263575077056885,-25.08,1.68,6.5,25.96
21.272602081298828,-27.45,1.66,5.63,28.07
21.28208303451538,-24.67,2.4,4.56,25.2
21.292935132980347,-17.07,3.52,3.67,17.81
21.32203507423401,-11.6,3.48,2.69,12.4
21.323139190673828,-9.29,3.32,0.86,9.9
21.323949098587036,-7.54,4.36,-0.26,8.71
21.332012176513672,-1.76,7.79,3.12,8.57
21.3419189453125,7.5,12.03,12.56,18.94
21.35181999206543,12.9,12.82,8.24,19.96
21.36401104927063,12.27,9.76,2.12,15.82
21.37281107902527,3.96,3.25,-4.36,6.72
21.382776260375977,-4.59,-0.28,-7.37,8.68
21.393115997314453,-9.25,-2.81,-8.21,12.68
21.41952109336853,-12.56,-3.76,-5.28,14.13
21.42064619064331,-14.27,-0.03,1.97,14.4
21.421536922454834,-14.44,5.41,5.25,16.28
21.432770252227783,-11.58,2.04,4.13,12.46
21.44203209877014,-9.77,0.25,4.57,10.78
21.45188307762146,-7.76,2.25,3.18,8.68
21.463808059692383,-5.08,1.19,2.26,5.68
21.473690032958984,-3.51,-2.3,2.08,4.68
21.483654975891113,-2.49,-2.61,1.67,3.97
21.494025230407715,-0.19,0.34,-1.4,1.45
21.52301597595215,3.26,2.2,-3.91,5.54
21.52409791946411,6.39,2.18,-4.08,7.88
21.524959087371826,7.46,0.79,-4.06,8.52
21.532248973846436,5.36,-0.62,-3.35,6.35
21.54257106781006,2.42,-0.49,-0.85,2.61
21.552478075027466,-0.08,-0.4,0.38,0.55
21.565059185028076,-2.82,0.13,0.17,2.82
21.573986053466797,-5.59,0.67,-0.81,5.68
21.584420204162598,-6.59,1.19,-0.38,6.7
21.594561100006104,-4.32,0.65,1.29,4.55
21.62437915802002,-0.72,-0.7,1.06,1.46
21.625458240509033,2.12,-0.64,-0.24,2.22
21.626296997070312,3.9,0.05,-1.79,4.29
21.632859230041504,4.54,0.39,-2.69,5.29
21.643264055252075,3.76,0.15,-2.57,4.55
21.65316605567932,1.63,-0.19,-2.19,2.73
21.66515302658081,-0.09,-0.01,-1.18,1.18
21.674925088882446,-1.02,0.38,-0.62,1.25
21.68472909927368,-1.46,0.61,-0.62,1.69
21.695444107055664,-1.03,0.86,-0.61,1.47
21.725605010986328,0.05,1.03,-0.65,1.21
21.726762056350708,1.14,0.81,-0.89,1.65
21.727639198303223,2.04,0.64,-1.12,2.41
21.733485221862793,2.4,0.6,-1.3,2.79
21.75076723098755,2.3,0.8,-1.18,2.7
21.75359606742859,1.96,1.08,-1.02,2.45
21.76831817626953,1.6,1.24,-1.05,2.28
21.77390193939209,1.65,1.21,-1.2,2.37
21.785381078720093,2.19,0.98,-1.58,2.87
21.795790195465088,2.79,0.88,-1.79,3.42
21.82753324508667,3.47,1.25,-1.42,3.95
21.828351974487305,4.21,1.86,-1.33,4.79
21.82917594909668,4.89,2.19,-0.95,5.44
21.833965063095093,5.09,2.25,-1.73,5.82
21.844522953033447,4.63,2.54,-3.58,6.38
21.855976104736328,3.91,3.24,-4.07,6.5
21.866104125976562,3.14,4.3,-3.72,6.49
21.875786066055298,2.95,5.46,-3.59,7.16
21.886198043823242,3.91,6.35,-3.82,8.37
21.896714210510254,5.57,6.9,-4.01,9.73
21.92838406562805,7.16,7.71,-4.28,11.35
21.929348945617676,8.29,9.0,-5.26,13.31
21.930122137069702,9.46,10.67,-6.91,15.84
21.952633142471313,11.52,11.72,-8.85,18.66
21.95335817337036,13.92,10.23,-9.44,19.68
21.969381093978882,13.78,6.53,-8.03,17.23
21.97333002090454,9.26,4.45,-8.97,13.63
21.982794046401978,5.58,5.57,-10.9,13.45
21.986212253570557,5.61,8.61,-6.71,12.27
21.999319076538086,5.53,8.86,-3.78,11.1
22.023982048034668,3.66,5.12,-5.85,8.59
22.02512216567993,1.07,0.68,-6.23,6.35
22.025979042053223,-0.53,-1.01,-5.04,5.16
22.035162925720215,0.36,0.28,-5.95,5.96
22.045319080352783,4.68,0.79,-4.27,6.38
22.05536913871765,9.19,0.23,-0.71,9.22
22.06725025177002,11.79,-0.93,-1.83,11.96
22.07724905014038,11.87,-3.14,-4.47,13.06
22.08718514442444,10.26,-5.19,-5.9,12.92
22.097341060638428,8.61,-5.58,-6.27,12.02
22.12720823287964,7.87,-5.04,-5.61,10.9
22.12818193435669,7.85,-4.51,-4.49,10.1
22.12898015975952,7.76,-3.98,-3.39,9.35
22.1358380317688,7.09,-3.27,-2.95,8.34
22.145933151245117,6.27,-2.6,-2.47,7.22
22.15620708465576,5.78,-1.76,-1.95,6.34
22.167841911315918,5.33,-0.65,-1.49,5.57
22.177490234375,4.51,0.3,-1.08,4.64
22.18778705596924,3.38,0.9,-0.51,3.53
22.198087215423584,2.28,1.45,0.12,2.7
22.227580070495605,1.5,2.18,0.66,2.72
22.228525161743164,1.06,3.0,1.06,3.35
22.229322910308838,0.61,3.87,1.47,4.18
22.236268043518066,-0.03,5.11,1.94,5.46
22.246623039245605,-0.66,6.78,2.29,7.18
22.256741046905518,-1.36,8.58,2.12,8.94
22.268455028533936,-1.91,10.16,1.52,10.44
22.28009796142578,-2.35,11.81,0.33,12.04
22.288494110107422,-3.18,13.62,-1.6,14.07
22.29905605316162,-5.04,14.72,-3.44,15.93
22.32903504371643,-8.3,14.09,-4.51,16.96
22.329999923706055,-12.62,11.97,-2.21,17.53
22.33087396621704,-17.35,9.77,3.42,20.2
22.352330207824707,-21.57,7.33,8.87,24.44
22.353116035461426,-25.01,4.76,8.48,26.83
22.37076997756958,-27.62,2.05,4.17,28.0
22.373655080795288,-28.19,0.25,2.53,28.3
22.380619049072266,-23.78,2.47,3.62,24.18
22.388978958129883,-17.48,4.44,3.18,18.31
22.399874210357666,-14.0,3.75,1.69,14.59
22.426544189453125,-9.89,4.21,-1.65,10.87
22.427670001983643,-1.41,7.58,2.94,8.25
22.428493976593018,8.26,11.52,11.22,18.07
22.438151121139526,12.49,12.81,4.56,18.46
22.44751811027527,10.13,8.37,-3.94,13.71
22.45765495300293,2.97,2.25,-5.78,6.87
22.469243049621582,-4.2,-0.64,-7.03,8.21
22.479907035827637,-8.65,-1.99,-7.08,11.35
22.488987922668457,-11.68,-2.03,-3.37,12.32
22.499550104141235,-12.88,0.39,3.99,13.48
22.529627084732056,-13.68,4.33,7.07,15.99
22.530640125274658,-11.99,3.27,5.06,13.41
22.53149914741516,-10.48,1.54,4.56,11.53
22.55516815185547,-7.32,3.01,2.64,8.34
22.558529138565063,-3.79,-0.21,1.39,4.04
22.56452512741089,-1.67,-1.95,1.09,2.78
22.568378925323486,-0.03,-1.25,-0.3,1.28
22.58317995071411,1.47,-0.3,-2.04,2.53
22.589959144592285,2.96,0.73,-2.76,4.11
22.599853992462158,3.94,1.48,-3.11,5.23
22.627591133117676,3.77,1.05,-3.12,5.0
22.628629207611084,2.3,-0.36,-2.13,3.15
22.629454135894775,0.73,-0.59,-0.99,1.36
22.638651132583618,-0.51,-0.34,-0.64,0.88
22.648962020874023,-1.32,0.11,-0.15,1.33
22.66079807281494,-1.85,0.43,0.1,1.9
22.670375108718872,-1.97,0.41,-0.74,2.14
22.681025981903076,-1.39,0.43,-1.38,2.0
22.690444946289062,-0.4,0.14,-1.54,1.59
22.70082426071167,0.5,-0.27,-1.27,1.39
22.731255054473877,1.23,-0.46,-0.83,1.55
22.73223114013672,1.64,-0.49,-1.0,1.98
22.73308515548706,1.89,-0.34,-1.33,2.33
22.753092050552368,2.16,-0.22,-1.39,2.57
22.753867149353027,2.08,-0.22,-1.65,2.66
22.767494201660156,1.49,-0.15,-2.13,2.6
22.771111965179443,0.77,-0.03,-2.2,2.33
22.78049898147583,0.18,0.04,-1.44,1.45
22.79153299331665,-0.19,0.34,-1.1,1.16
22.80088210105896,-0.11,0.7,-1.12,1.32
22.830620050430298,0.32,0.81,-1.1,1.4
22.83168315887451,0.73,0.91,-1.43,1.84
22.832531929016113,1.07,1.32,-1.69,2.39
22.85249614715576,1.63,2.02,-1.07,2.8
22.85330820083618,2.23,2.47,-0.48,3.36
22.867059230804443,2.75,2.3,-0.59,3.63
22.871270179748535,3.62,1.94,-0.09,4.1
22.882730960845947,4.71,1.81,-0.22,5.05
22.891541957855225,5.71,2.32,-1.07,6.25
22.901577949523926,6.0,2.89,-2.07,6.97
22.929834127426147,5.27,3.27,-2.91,6.85
22.93104124069214,3.69,3.91,-4.37,6.92
22.931862115859985,2.42,4.87,-4.28,6.92
22.952454090118408,1.95,5.83,-3.78,7.21
22.953269958496094,2.48,6.44,-4.09,8.02
22.969561100006104,4.07,6.93,-4.67,9.29
22.97278904914856,6.15,7.71,-5.07,11.08
22.983177185058594,7.94,8.76,-5.52,13.04
22.99184513092041,9.5,9.94,-7.29,15.56
23.00216817855835,11.33,10.84,-9.53,18.34
23.03220510482788,13.66,10.43,-11.67,20.77
23.03323793411255,15.51,7.66,-11.61,20.83
23.03413200378418,14.03,4.4,-9.09,17.28
23.052626132965088,8.28,3.54,-10.05,13.49
23.05345916748047,5.37,5.44,-9.27,12.01
23.069589138031006,4.73,8.06,-5.55,10.86
23.07328510284424,2.92,7.75,-5.65,10.02
23.081223011016846,0.43,4.25,-6.94,8.14
23.093135118484497,-1.13,1.1,-6.46,6.64
23.102736949920654,-0.33,1.23,-5.32,5.47
23.132164001464844,3.67,2.08,-4.5,6.16
23.13319492340088,7.97,1.13,-1.52,8.19
23.134045124053955,10.32,-1.15,-1.86,10.54
23.152369022369385,10.59,-3.7,-3.98,11.9
23.153197050094604,9.31,-5.64,-5.21,12.06
23.167997121810913,7.53,-6.27,-5.9,11.43
23.17294406890869,6.41,-6.19,-5.89,10.68
23.183053016662598,6.15,-6.36,-5.4,10.36
23.193496227264404,6.25,-6.32,-4.77,10.08
23.203211069107056,6.24,-5.37,-4.17,9.22
23.23519992828369,6.08,-4.4,-3.69,8.36
23.23633313179016,5.84,-3.82,-3.35,7.74
23.237202167510986,5.58,-3.13,-2.99,7.06
23.25247621536255,5.21,-2.14,-2.65,6.22
23.25327706336975,4.57,-1.24,-2.34,5.28
23.267320156097412,3.74,-0.6,-1.85,4.21
23.272261142730713,2.89,0.02,-1.31,3.17
23.284943103790283,2.24,0.83,-1.0,2.58
23.292521953582764,1.76,1.88,-0.73,2.67
23.30419397354126,1.36,3.0,-0.44,3.32
23.328915119171143,0.65,4.81,-0.29,4.86
23.330097198486328,-0.51,7.17,-0.32,7.19
23.332523107528687,-2.05,10.04,-0.65,10.26
23.354153156280518,-4.0,13.14,-0.86,13.76
23.355474948883057,-6.3,15.25,-1.0,16.53
23.368003129959106,-8.57,15.76,-2.1,18.06
23.373767137527466,-10.44,15.1,-3.46,18.68
23.384480953216553,-12.27,13.82,-3.2,18.75
23.395146131515503,-14.88,11.78,-0.71,18.99
23.404676914215088,-18.58,8.59,3.36,20.74
23.436561107635498,-22.51,5.12,7.21,24.18
23.43766212463379,-27.11,3.49,7.62,28.37
23.43854808807373,-29.54,2.33,6.48,30.33
23.449602127075195,-25.85,1.49,6.48,26.69
23.45322608947754,-18.15,2.6,6.3,19.38
23.467244148254395,-12.08,3.83,2.37,12.89
23.475237131118774,-7.2,4.92,-0.24,8.72
23.484839916229248,-1.57,5.97,-0.69,6.21
23.495558261871338,6.94,8.63,6.8,12.99
23.505390167236328,14.31,9.98,12.16,21.26
23.53522300720215,15.96,6.18,7.52,18.69
23.53636598587036,12.51,1.55,-3.9,13.19
23.53718900680542,4.81,1.51,-1.45,5.24
23.551833152770996,-4.2,3.97,-0.88,5.84
23.553802967071533,-10.4,4.45,-6.2,12.89
23.56660223007202,-13.82,2.11,-8.3,16.25
23.575490951538086,-15.84,0.89,0.01,15.86
23.58579921722412,-15.53,2.01,5.25,16.51
23.596768140792847,-13.48,1.0,4.84,14.35
23.605542182922363,-11.54,1.69,5.11,12.73
23.63492703437805,-8.58,2.59,3.36,9.57
23.635982990264893,-6.42,0.35,1.66,6.64
23.636785984039307,-4.14,-1.01,1.66,4.57
23.650134086608887,-1.59,-1.41,0.42,2.16
23.654470920562744,1.39,0.04,-1.94,2.38
23.667400121688843,4.38,1.37,-3.72,5.9
23.676064014434814,6.64,1.88,-3.94,7.94
23.685431003570557,7.64,1.03,-3.34,8.4
23.695892095565796,6.0,-0.81,-1.84,6.32
23.706178188323975,2.23,-1.09,-1.9,3.12
23.737503051757812,-1.82,0.12,-2.73,3.28
23.738962173461914,-4.98,1.04,-1.08,5.2
23.73979616165161,-6.25,1.0,0.82,6.38
23.74794912338257,-4.75,0.13,0.67,4.79
23.755062103271484,-1.3,-0.06,0.17,1.31
23.76597809791565,1.59,0.11,-0.8,1.78
23.77600407600403,3.22,0.01,-1.92,3.74
23.78604221343994,3.7,0.02,-2.49,4.45
23.79620122909546,3.19,-0.04,-2.22,3.88
23.806175231933594,2.09,0.0,-1.66,2.66
23.83822512626648,1.08,0.43,-0.71,1.36
23.839681148529053,0.34,0.74,-0.63,1.02
23.84062910079956,-0.07,0.86,-0.96,1.29
23.847790241241455,-0.22,0.8,-0.95,1.26
23.855457067489624,-0.22,0.63,-0.91,1.12
23.8669331073761,0.05,0.59,-0.84,1.02
23.87667417526245,0.43,0.58,-0.67,0.98
23.886840105056763,0.62,0.6,-0.53,1.01
23.896914958953857,0.88,0.73,-0.56,1.27
23.906925201416016,1.34,0.75,-0.83,1.74
23.938738107681274,1.9,0.64,-1.18,2.32
23.939715147018433,2.38,0.42,-1.58,2.88
23.940515995025635,2.71,0.35,-1.99,3.38
23.948087215423584,3.03,0.51,-2.28,3.82
23.957369089126587,3.31,0.86,-1.79,3.86
23.9671790599823,3.67,1.4,-1.07,4.07
23.97726011276245,4.25,1.75,-1.13,4.73
23.987317085266113,4.96,2.02,-1.48,5.55
23.997453212738037,5.32,2.22,-2.37,6.23
24.007479190826416,4.92,2.43,-3.61,6.56
24.040561199188232,4.08,3.03,-4.41,6.72
24.042051076889038,3.53,4.01,-4.37,6.9
24.042967081069946,3.75,5.27,-4.2,7.71
24.047842025756836,4.88,6.52,-4.56,9.33
24.056780099868774,6.49,7.81,-4.59,11.14
24.067862033843994,8.06,9.31,-5.28,13.39
24.07820224761963,9.26,10.58,-6.55,15.51
24.087830066680908,10.77,10.79,-7.71,17.08
24.098236083984375,12.09,9.23,-7.45,16.93
24.108176231384277,10.91,6.66,-6.64,14.4
24.140378952026367,6.82,5.9,-7.28,11.58
24.141327142715454,4.24,7.81,-8.91,12.58
24.142105102539062,4.67,10.61,-6.89,13.48
24.1480610370636,5.24,10.36,-5.37,12.79
24.158878087997437,4.84,6.65,-7.12,10.87
24.1685209274292,3.35,1.81,-6.75,7.74
24.179229259490967,1.54,-0.89,-4.54,4.87
24.189034938812256,0.67,0.28,-3.55,3.62
24.198790073394775,2.55,1.8,-5.11,5.98
24.209033012390137,5.9,0.91,-2.98,6.67
24.240126132965088,8.49,-0.62,-2.47,8.86
24.241189002990723,9.72,-2.47,-3.94,10.77
24.242012977600098,9.69,-4.5,-5.06,11.82
24.24800395965576,9.07,-5.86,-5.45,12.09
24.25796604156494,8.3,-6.23,-5.45,11.72
24.26938509941101,7.65,-6.15,-5.32,11.16
24.27957010269165,7.13,-5.96,-5.12,10.61
24.289363145828247,6.56,-5.4,-4.7,9.7
24.29942512512207,6.04,-4.54,-4.34,8.71
24.309540033340454,5.68,-3.66,-3.85,7.77
24.341180086135864,5.41,-2.73,-3.23,6.86
24.342222213745117,5.01,-1.78,-2.66,5.94
24.34294104576111,4.35,-0.92,-2.1,4.91
24.348222255706787,3.34,-0.2,-1.67,3.73
24.360084056854248,2.14,0.34,-1.26,2.5
24.36946725845337,1.08,1.08,-0.82,1.73
24.379903078079224,0.35,2.28,-0.24,2.31
24.390015125274658,-0.05,3.89,0.38,3.9
24.400092124938965,-0.52,5.53,0.69,5.59
24.41012191772461,-1.18,6.83,0.54,6.95
24.44079613685608,-1.96,8.31,-0.01,8.53
24.44177508354187,-3.23,10.09,-0.73,10.61
24.442589044570923,-4.72,11.79,-1.2,12.75
24.4493510723114,-6.26,13.03,-1.77,14.56
24.459805011749268,-7.83,13.92,-2.2,16.12
24.471177101135254,-9.63,14.33,-1.75,17.35
24.48106622695923,-12.2,13.43,0.09,18.14
24.490427017211914,-15.1,10.59,2.63,18.62
24.500477075576782,-18.72,7.51,4.64,20.69
24.51072597503662,-21.99,4.32,6.35,23.29
24.53989315032959,-24.96,2.48,7.18,26.09
24.540836095809937,-26.88,2.17,6.19,27.66
24.54167914390564,-23.77,1.83,5.39,24.44
24.549318075180054,-17.08,2.64,4.32,17.81
24.559786081314087,-11.0,4.01,0.52,11.71
24.571089267730713,-6.52,4.86,-0.15,8.13
24.580835103988647,-1.33,5.41,-2.0,5.91
24.59133005142212,6.93,7.56,7.0,12.41
24.601119995117188,13.15,8.15,10.73,18.82
24.610685110092163,14.56,5.53,6.56,16.89
24.642518043518066,12.41,2.02,-2.66,12.85
24.6435809135437,5.96,1.64,-2.09,6.52
24.644390106201172,-2.66,2.95,-2.52,4.7
24.650042057037354,-8.58,3.17,-5.87,10.86
24.66663908958435,-11.79,1.72,-8.28,14.5
24.67111825942993,-13.42,0.25,-3.34,13.83
24.682749032974243,-12.81,0.38,2.88,13.13
24.69147300720215,-11.75,3.14,4.15,12.85
24.70157504081726,-10.13,1.61,2.05,10.45
24.71182107925415,-8.85,0.88,1.35,8.99
24.743781089782715,-6.56,1.86,1.29,6.93
24.744566917419434,-4.35,-0.84,2.31,4.99
24.74527597427368,-3.58,-2.08,2.19,4.68
24.750319957733154,-2.7,-0.49,2.02,3.4
24.7624671459198,-0.87,2.05,-0.91,2.4
24.77183723449707,1.97,3.25,-2.63,4.62
24.78187608718872,5.16,1.75,-2.67,6.06
24.79202914237976,7.58,-0.4,-2.78,8.08
24.80224895477295,7.94,-2.02,-3.19,8.79
24.812331199645996,5.6,-2.39,-2.22,6.48
24.845608234405518,2.17,-1.31,-1.5,2.94
24.846944093704224,-1.72,0.39,-1.89,2.58
24.848170042037964,-5.39,1.53,-1.98,5.94
24.867202043533325,-7.08,1.38,-0.77,7.25
24.870086193084717,-5.37,0.82,0.96,5.51
24.88331913948059,-1.51,-0.71,1.34,2.14
24.886744022369385,1.97,-0.83,0.55,2.2
24.899374961853027,4.09,0.09,-1.1,4.23
24.902781009674072,4.72,0.63,-2.68,5.46
24.915513038635254,3.98,0.31,-2.55,4.73
24.940357208251953,1.87,0.0,-1.65,2.49
24.941479206085205,-0.12,0.2,-1.04,1.06
24.942309141159058,-1.25,0.36,-0.76,1.5
24.951653003692627,-1.63,0.64,-0.47,1.81
24.961719036102295,-1.21,0.84,-0.41,1.52
24.971739053726196,0.02,1.07,-0.69,1.27
24.983214139938354,1.2,1.31,-0.93,2.0
24.99315905570984,1.83,1.37,-1.35,2.65
25.0038161277771,2.38,1.48,-1.14,3.02
25.01344919204712,2.56,1.46,-1.03,3.12
25.04547691345215,2.55,1.26,-1.23,3.09
25.046419143676758,2.61,1.06,-1.76,3.32
25.047145128250122,2.79,0.99,-2.11,3.63
25.06839108467102,3.1,1.05,-2.17,3.92
25.07217025756836,3.49,1.17,-1.65,4.03
25.0832200050354,4.0,1.43,-1.55,4.52
25.086334228515625,4.59,1.6,-2.02,5.26
25.099040985107422,4.94,1.76,-2.72,5.9
25.103883266448975,4.57,2.41,-3.9,6.47
25.11550211906433,3.89,3.55,-4.23,6.75
25.14228105545044,3.47,4.74,-3.75,6.96
25.14341711997986,3.65,5.81,-3.57,7.73
25.14423704147339,4.68,6.67,-3.71,8.95
25.153096199035645,6.19,7.6,-3.72,10.48
25.16454792022705,7.56,8.98,-4.03,12.41
25.17333698272705,8.39,10.77,-5.5,14.71
25.184685230255127,9.63,12.24,-7.51,17.29
25.194562911987305,11.47,11.11,-9.49,18.57
25.2046160697937,12.24,6.94,-9.11,16.76
25.21444606781006,9.65,4.01,-8.96,13.76
25.24440908432007,6.92,5.0,-11.13,14.02
25.245375156402588,7.06,7.53,-8.95,13.66
25.24620294570923,7.55,8.5,-6.27,12.98
25.268019199371338,6.31,5.65,-6.27,10.53
25.2713942527771,3.51,0.7,-6.68,7.57
25.281446933746338,0.94,-1.9,-5.65,6.03
25.284770965576172,-0.81,-1.44,-3.9,4.23
25.300053119659424,-0.39,0.28,-5.35,5.37
25.305034160614014,3.21,-0.06,-4.15,5.24
25.317333221435547,6.82,-1.22,-2.51,7.36
25.34223222732544,8.86,-2.28,-3.86,9.92
25.343393087387085,9.64,-3.93,-5.39,11.72
25.344284057617188,9.55,-5.5,-6.09,12.59
25.353997230529785,9.07,-6.35,-6.09,12.63
25.365252017974854,8.37,-6.36,-5.74,11.97
25.375998973846436,7.58,-5.93,-5.26,10.96
25.385472059249878,6.73,-5.25,-4.75,9.76
25.39675998687744,5.89,-4.44,-4.23,8.5
25.405672073364258,5.33,-3.56,-3.65,7.37
25.416269063949585,5.2,-2.61,-3.05,6.56
25.446285247802734,5.13,-1.58,-2.56,5.94
25.447172164916992,4.71,-0.75,-2.23,5.26
25.448041915893555,3.98,-0.32,-1.96,4.44
25.472230911254883,3.15,0.14,-1.47,3.47
25.47563409805298,2.46,1.01,-1.0,2.84
25.48057794570923,1.93,2.25,-0.72,3.05
25.484889030456543,1.4,3.97,-0.32,4.22
25.500027179718018,0.55,6.25,0.12,6.27
25.506081104278564,-0.76,8.82,0.2,8.85
25.51625919342041,-2.35,11.1,-0.18,11.34
25.54666304588318,-3.88,12.85,-0.53,13.43
25.547815084457397,-5.35,14.29,-1.06,15.29
25.5486741065979,-7.06,15.43,-1.62,17.04
25.569355010986328,-9.15,16.44,-1.45,18.87
25.570169925689697,-11.66,15.77,-3.24,19.87
25.581207036972046,-14.73,10.62,-0.06,18.15
25.58556318283081,-18.51,5.41,5.21,19.97
25.600139141082764,-22.61,2.68,7.91,24.1
25.607182025909424,-26.51,1.99,8.94,28.04
25.61746120452881,-28.51,2.83,7.42,29.59
25.64883303642273,-23.51,4.23,6.13,24.66
25.649871110916138,-15.2,5.32,4.04,16.6
25.650732040405273,-10.74,4.3,3.13,11.98
25.669174194335938,-9.13,3.05,-1.2,9.7
25.66998815536499,-3.63,4.95,-0.9,6.2
25.68543291091919,6.62,9.55,11.85,16.59
25.688005924224854,14.35,12.34,15.17,24.25
25.699501991271973,15.04,9.62,0.4,17.85
25.70753002166748,11.36,5.49,-1.76,12.73
25.71745491027832,2.43,2.0,-4.7,5.65
25.74926519393921,-5.0,-0.37,-5.36,7.33
25.750357151031494,-9.2,-2.22,-6.98,11.75
25.75121021270752,-12.66,-1.78,-3.69,13.3
25.769196033477783,-14.84,3.67,5.24,16.16
25.77001714706421,-13.47,3.77,4.74,14.76
25.78621006011963,-11.73,0.89,5.46,12.96
25.789103984832764,-11.22,0.12,4.3,12.01
25.797136068344116,-9.11,2.11,2.28,9.62
25.80855894088745,-5.59,1.11,0.39,5.71
25.81823205947876,-3.39,-1.25,-0.1,3.61
25.847697257995605,-0.95,-1.64,-0.72,2.02
25.84879493713379,2.01,-0.93,-2.82,3.58
25.849656105041504,4.89,0.53,-3.95,6.3
25.86961317062378,6.54,1.5,-3.42,7.53
25.870416164398193,6.37,0.57,-3.86,7.47
25.88340425491333,4.13,-1.11,-3.42,5.47
25.888374090194702,1.79,-1.03,-0.98,2.28
25.899803161621094,-0.64,-0.48,-0.25,0.83
25.908764123916626,-3.07,-0.01,-0.37,3.09
25.918685913085938,-4.69,0.53,-0.63,4.76
25.950736045837402,-4.57,0.82,-0.15,4.64
25.95180320739746,-2.94,0.19,0.43,2.97
25.952631950378418,-0.95,-0.14,0.22,0.98
25.968843936920166,0.57,-0.03,-0.16,0.59
25.97011709213257,1.8,-0.21,-0.23,1.82
25.98317813873291,2.69,-0.26,-0.78,2.81
25.989264965057373,3.01,-0.02,-1.42,3.32
26.00026226043701,2.44,0.21,-1.3,2.77
26.009225130081177,1.18,0.48,-1.48,1.95
26.019410133361816,-0.1,0.49,-1.36,1.44
26.049586057662964,-0.95,0.25,-0.76,1.24
26.050679206848145,-1.12,0.38,-0.48,1.27
26.05153203010559,-0.87,0.4,-0.44,1.05
26.069403171539307,-0.26,0.42,-0.45,0.66
26.070260047912598,0.51,0.82,-0.78,1.24
26.086236000061035,1.38,1.48,-1.02,2.26
26.089648246765137,2.2,1.66,-1.22,3.01
26.098327159881592,2.66,1.51,-1.4,3.36
26.110149145126343,2.87,1.29,-1.67,3.56
26.120017051696777,3.22,1.15,-2.09,4.0
26.1479549407959,3.71,1.11,-2.25,4.47
26.149089097976685,4.21,1.1,-1.9,4.74
26.149928092956543,4.35,1.91,-2.28,5.26
26.169234037399292,4.27,2.73,-2.59,5.69
26.169973134994507,4.16,2.96,-2.46,5.66
26.18076515197754,3.56,3.06,-3.39,5.79
26.190545082092285,2.85,3.43,-3.65,5.76
26.20038914680481,2.35,4.1,-3.26,5.74
26.210586071014404,2.32,4.87,-3.11,6.22
26.22064208984375,2.96,5.47,-3.17,6.98
26.250551223754883,4.31,5.96,-2.68,7.82
26.25164008140564,5.81,6.52,-3.03,9.24
26.252514123916626,7.14,6.96,-5.04,11.17
26.269125938415527,8.82,7.33,-6.34,13.1
26.269971132278442,11.04,7.59,-8.28,15.74
26.286354064941406,13.26,7.63,-8.83,17.66
26.290637016296387,14.14,7.2,-7.4,17.5
26.300713062286377,11.33,6.42,-6.16,14.4
26.31142520904541,6.86,6.61,-6.9,11.76
26.320950984954834,4.89,8.18,-8.0,12.44
26.351359128952026,5.58,9.82,-7.77,13.7
26.35251212120056,7.24,8.9,-7.79,13.86
26.353414058685303,8.23,5.28,-6.95,11.99
26.36939811706543,6.95,0.93,-5.9,9.16
26.370182991027832,3.59,-2.91,-5.09,6.87
26.385905265808105,0.33,-3.17,-4.97,5.9
26.39125919342041,-0.75,0.28,-6.91,6.95
26.401488065719604,2.43,2.86,-4.85,6.13
26.41202402114868,6.63,1.8,-1.54,7.04
26.42182493209839,8.83,-1.14,-2.38,9.21
26.455467224121094,8.99,-4.31,-4.17,10.8
26.456560134887695,8.28,-5.87,-5.0,11.31
26.457409143447876,7.46,-5.95,-5.02,10.78
26.46599006652832,6.99,-5.8,-4.86,10.3
26.470283031463623,6.99,-6.02,-4.51,10.26
26.48291301727295,6.8,-5.73,-3.85,9.68
26.492228984832764,6.09,-4.82,-3.26,8.42
26.502052068710327,5.34,-3.85,-2.89,7.18
26.513270139694214,4.72,-2.83,-2.56,6.06
26.522443056106567,4.1,-1.63,-2.05,4.86
26.55298900604248,3.27,-0.52,-1.54,3.65
26.55410099029541,2.34,0.3,-1.18,2.63
26.554887056350708,1.55,0.98,-0.63,1.93
26.567618131637573,1.08,1.71,-0.04,2.02
26.57098913192749,0.99,2.87,0.29,3.04
26.581180095672607,0.99,4.66,0.61,4.8
26.592639923095703,0.66,7.08,0.49,7.12
26.602599143981934,-0.4,9.7,-0.17,9.7
26.614497184753418,-2.21,12.04,-1.19,12.29
26.623425006866455,-4.65,14.17,-1.68,15.0
26.653253078460693,-7.34,15.34,-2.12,17.13
26.654349088668823,-9.46,14.79,-2.41,17.72
26.655205249786377,-11.21,13.38,-2.21,17.59
26.66484308242798,-13.43,11.76,-0.2,17.85
26.671404123306274,-16.61,9.79,3.26,19.55
26.68570303916931,-20.99,8.92,7.49,24.0
26.692830085754395,-25.63,7.18,7.56,27.66
26.70348024368286,-29.96,3.91,7.04,31.02
26.715424060821533,-30.86,0.46,6.55,31.55
26.7234890460968,-25.58,0.67,2.2,25.68
26.755043983459473,-16.11,2.34,1.38,16.33
26.756237983703613,-9.15,3.21,-2.94,10.13
26.757105112075806,-1.2,5.29,-3.37,6.38
26.767978191375732,8.4,10.47,8.93,16.12
26.771910190582275,14.65,12.23,10.35,21.7
26.782716035842896,15.39,9.03,3.79,18.24
26.79434609413147,12.72,4.74,-0.34,13.57
26.803696155548096,6.54,2.25,2.54,7.36
26.814095973968506,-2.71,0.98,-5.18,5.92
26.823974132537842,-8.31,-0.28,-9.29,12.46
26.85702610015869,-11.11,-1.6,-7.41,13.44
26.85801124572754,-12.22,-0.82,0.1,12.24
26.858906030654907,-11.56,0.59,4.21,12.31
26.86561918258667,-10.3,1.05,2.89,10.74
26.872530937194824,-10.7,3.95,5.8,12.79
26.882853984832764,-10.59,4.75,3.66,12.16
26.89486813545227,-7.74,1.51,1.72,8.07
26.904736042022705,-4.74,-1.41,0.57,4.97
26.914615154266357,-2.46,-0.66,0.28,2.56
26.92462921142578,-0.38,0.29,-1.47,1.54
26.95512819290161,1.99,0.87,-2.43,3.25
26.956164121627808,4.16,0.82,-2.45,4.89
26.95702314376831,5.32,0.05,-3.94,6.62
26.965402126312256,5.58,-0.75,-3.99,6.9
26.973434925079346,4.76,-1.6,-2.21,5.48
26.984679222106934,2.61,-1.34,-1.48,3.28
26.995540142059326,-0.52,-0.34,-1.55,1.66
27.004859924316406,-3.18,0.68,-1.01,3.4
27.015090942382812,-4.53,1.37,-0.14,4.73
27.02558708190918,-4.16,0.66,0.3,4.22
27.054197072982788,-2.37,-0.41,-0.18,2.41
27.055340051651,-0.2,-0.44,-0.38,0.61
27.056113243103027,1.57,-0.48,-0.69,1.78
27.06674814224243,2.71,-0.45,-1.27,3.02
27.07367706298828,3.34,-0.39,-2.05,3.93
27.08403706550598,3.17,-0.27,-1.73,3.62
27.096205234527588,1.92,-0.24,-1.53,2.46
27.105428218841553,0.2,-0.03,-1.02,1.03
27.115422248840332,-1.03,0.18,-0.57,1.19
27.126025199890137,-1.36,0.17,-0.27,1.39
27.15808916091919,-0.94,0.0,-0.18,0.95
27.15923023223877,-0.14,-0.15,-0.6,0.63
27.159955978393555,0.6,-0.17,-1.18,1.33
27.164717197418213,1.09,-0.02,-1.45,1.81
27.18340492248535,1.33,0.2,-1.24,1.82
27.184330940246582,1.25,0.39,-0.86,1.56
27.199533939361572,1.2,0.5,-0.59,1.42
27.206054210662842,1.47,0.5,-0.42,1.6
27.215901136398315,2.01,0.5,-0.49,2.12
27.22598123550415,2.53,0.6,-1.08,2.81
27.25739622116089,2.93,1.0,-1.4,3.39
27.258373260498047,2.92,1.34,-1.6,3.58
27.259230136871338,2.67,1.59,-1.48,3.44
27.265257120132446,2.41,1.57,-1.48,3.23
27.274943113327026,2.35,1.34,-1.91,3.31
27.28515911102295,2.28,1.3,-2.31,3.49
27.29698610305786,2.17,1.76,-2.56,3.78
27.306504249572754,2.21,2.78,-2.71,4.46
27.31690812110901,2.56,4.33,-2.86,5.78
27.326920986175537,3.0,6.34,-2.73,7.52
27.356940031051636,3.18,8.41,-2.09,9.23
27.35802698135376,3.6,10.74,-1.05,11.37
27.35888409614563,4.65,12.51,-1.09,13.39
27.36618709564209,6.67,13.07,-2.28,14.84
27.376148223876953,9.01,11.25,-4.96,15.24
27.38540506362915,11.52,7.91,-6.13,15.25
27.397851943969727,11.95,3.96,-5.68,13.81
27.407058238983154,8.14,0.49,-5.58,9.88
27.41728711128235,2.59,-0.75,-8.01,8.45
27.428175926208496,0.27,1.24,-9.2,9.28
27.460866928100586,2.88,4.19,-4.31,6.66
27.461885929107666,7.53,3.53,2.1,8.57
27.462701082229614,9.22,-0.81,0.24,9.25
27.465947151184082,8.61,-4.23,-2.36,9.87
27.47597312927246,8.29,-4.71,-1.57,9.66
27.488097190856934,7.75,-3.5,-1.25,8.59
27.49799919128418,7.05,-2.91,-1.87,7.85
27.507862091064453,6.75,-3.44,-1.98,7.83
27.518221139907837,6.79,-4.31,-1.81,8.24
27.528656005859375,6.69,-4.83,-2.3,8.56
27.559332132339478,6.28,-4.56,-3.16,8.37
27.56040620803833,5.34,-3.76,-3.69,7.5
27.561214923858643,3.82,-3.1,-3.97,6.32
27.566443920135498,2.36,-2.23,-3.56,4.81
27.584167957305908,1.32,-0.8,-2.2,2.68
27.58810806274414,0.56,0.63,-0.93,1.25
27.59969210624695,-0.27,1.75,-0.18,1.77
27.60807204246521,-1.61,2.7,-0.03,3.14
27.618277072906494,-3.83,3.49,-1.26,5.33
27.62918519973755,-5.59,4.32,-3.08,7.7
27.65760326385498,-5.5,5.33,-3.51,8.42
27.658577919006348,-4.89,5.19,-3.36,7.88
27.659417152404785,-4.95,4.52,-3.68,7.64
27.667102098464966,-5.96,4.56,-3.63,8.33
27.67717218399048,-8.05,4.89,-4.49,10.43
27.687139987945557,-10.86,5.07,-5.8,13.31
27.699377059936523,-13.54,4.53,-6.16,15.54
27.708683967590332,-15.36,3.13,-6.38,16.92
27.719516038894653,-16.65,2.15,-7.14,18.24
27.72926902770996,-17.88,1.6,-6.3,19.02
27.760016918182373,-20.63,1.68,-3.89,21.06
27.761101245880127,-25.42,1.91,1.01,25.51
27.76191520690918,-32.0,3.12,9.52,33.53
27.768627166748047,-31.76,5.98,7.98,33.28
27.78291606903076,-20.48,11.0,13.07,26.66
27.7876980304718,-2.48,8.32,14.23,16.66
27.800825119018555,5.12,5.55,-3.62,8.37
27.809561252593994,9.66,5.46,-17.62,20.82
27.81923007965088,14.2,3.27,-20.09,24.81
27.829644203186035,16.67,-1.78,-9.02,19.03
27.860655069351196,17.01,-7.69,-2.68,18.85
27.86158800125122,11.27,-7.14,-2.21,13.52
27.862407207489014,3.61,-1.97,-0.76,4.18
27.86820125579834,-2.31,0.34,-2.19,3.2
27.878243923187256,-7.05,0.99,-2.86,7.67
27.88826894760132,-9.79,0.55,-0.87,9.84
27.900249004364014,-10.55,-0.74,1.85,10.73
27.909905910491943,-8.62,-1.75,3.42,9.43
27.920095920562744,-4.54,-0.24,4.33,6.27
27.9304940700531,-0.34,1.28,3.9,4.11
27.962603092193604,2.32,1.58,1.56,3.21
27.963566064834595,3.62,1.7,-0.76,4.07
27.964412212371826,3.76,1.54,-1.7,4.4
27.98573398590088,3.01,0.85,-1.71,3.56
27.986989974975586,2.32,0.21,-1.09,2.57
28.00291919708252,1.76,-0.38,-0.12,1.8
28.00645399093628,0.76,-1.07,0.85,1.56
28.01529312133789,-0.61,-1.59,1.7,2.4
28.020801067352295,-1.93,-1.58,2.24,3.35
28.032876014709473,-2.66,-1.01,2.41,3.72
28.0560359954834,-2.49,-0.21,1.61,2.97
28.057188034057617,-1.42,0.35,0.35,1.5
28.05919909477234,-0.35,0.63,-1.19,1.39
28.06937313079834,0.37,0.87,-2.32,2.5
28.07958698272705,0.89,1.16,-2.25,2.68
28.08961009979248,1.18,1.33,-1.44,2.28
28.101393222808838,1.09,1.11,-1.04,1.87
28.11148500442505,0.83,0.57,-0.58,1.16
28.121270179748535,0.56,-0.14,-0.32,0.66
28.131350994110107,0.36,-0.45,-0.05,0.57
28.160953044891357,0.12,-0.56,-0.07,0.57
28.1617591381073,-0.54,-0.56,0.02,0.77
28.16258192062378,-0.11,0.28,0.11,0.32
28.186281204223633,0.35,0.09,-1.16,1.21
28.18756914138794,0.53,-0.2,-1.59,1.68
28.203057050704956,0.58,-0.02,-1.42,1.53
28.206911087036133,0.42,0.46,-0.66,0.9
28.215412139892578,0.29,0.78,-0.08,0.83
28.221549034118652,0.1,0.56,0.24,0.61
28.233773231506348,0.29,0.51,-0.07,0.59
28.258306980133057,1.49,0.89,-1.0,2.0
28.25946807861328,1.67,-0.07,-1.15,2.02
28.260340213775635,0.44,-1.19,-1.35,1.85
28.270720958709717,-0.58,-0.98,-1.33,1.75
28.28239393234253,-0.61,-0.14,-0.8,1.01
28.29083013534546,0.59,0.67,-1.17,1.47
28.302245140075684,1.23,0.29,-1.27,1.79
28.31302809715271,0.45,-0.77,-0.92,1.28
28.322503089904785,0.2,-0.63,-0.7,0.96
28.333017110824585,-0.29,-0.61,-0.22,0.71
28.365379095077515,-0.32,-0.31,-0.4,0.59
28.366321086883545,0.8,0.67,-0.67,1.24
28.367131233215332,1.98,0.49,-0.45,2.08
28.388473987579346,2.35,-0.44,-0.12,2.39
28.392336130142212,2.02,-0.91,-0.53,2.27
28.397222995758057,1.52,-0.54,-0.08,1.61
28.40140724182129,1.37,-0.1,-0.22,1.39
28.416113138198853,0.47,-0.24,-0.23,0.57
28.42296314239502,-0.33,-2.1,-1.14,2.41
28.432788133621216,-0.73,-3.49,-1.04,3.71
28.464334964752197,-0.69,-4.01,0.37,4.08
28.465404987335205,-1.28,-3.3,1.69,3.92
28.466195106506348,-1.28,-1.95,0.38,2.36
28.48569393157959,0.06,0.68,-1.86,1.98
28.486488103866577,-0.02,2.49,-1.95,3.16
28.502106189727783,-0.69,2.31,-2.35,3.36
28.50437307357788,-1.29,0.31,-2.3,2.65
28.51578998565674,-1.67,-2.57,-1.57,3.44
28.523683071136475,-1.19,-3.05,-0.35,3.29
28.533417224884033,0.25,-2.08,-0.03,2.09
28.561726093292236,0.62,-1.31,0.31,1.48
28.562950134277344,0.54,-1.69,-0.44,1.82
28.563815116882324,0.75,-1.88,-1.34,2.42
28.585608959197998,0.62,-1.64,-0.15,1.75
28.58641505241394,1.1,-1.09,-0.24,1.56
28.60336208343506,0.85,-0.62,0.48,1.15
28.606256008148193,0.88,0.29,0.83,1.24
28.61551523208618,0.73,1.59,1.41,2.24
28.624306201934814,0.61,3.13,-0.56,3.23
28.63387393951416,0.31,3.3,1.2,3.52
28.662886142730713,0.23,2.03,1.81,2.72
28.66407012939453,0.89,0.76,0.78,1.4
28.664966106414795,0.71,0.04,1.79,1.92
28.68591022491455,0.92,0.63,3.16,3.35
28.686724185943604,0.81,0.05,3.9,3.98
28.701663970947266,0.8,-2.49,1.63,3.08
28.704193115234375,1.83,-4.74,3.08,5.94
28.716511249542236,2.36,-5.57,4.25,7.39
28.724390029907227,3.91,-7.83,-6.08,10.65
28.734610080718994,6.75,-6.14,3.4,9.73
28.761690139770508,6.67,-0.41,7.27,9.87
28.762986183166504,5.85,1.37,5.69,8.27
28.763869047164917,5.18,2.39,6.41,8.58
28.78589391708374,4.54,2.55,5.89,7.86
28.78669309616089,4.13,3.48,5.58,7.76
28.803202152252197,3.55,5.03,5.47,8.23
28.80710792541504,2.92,6.8,5.37,9.14
28.81527614593506,2.24,7.87,4.41,9.29
28.824928045272827,1.73,8.25,3.71,9.2
28.835330963134766,1.21,8.42,3.29,9.12
28.86503505706787,0.69,8.25,2.91,8.77
28.866162061691284,-0.14,7.85,2.12,8.13
28.867018222808838,-0.87,7.27,0.69,7.35
28.88584303855896,-1.72,6.33,0.07,6.55
28.886669158935547,-2.42,5.37,-0.24,5.89
28.902969121932983,-3.41,4.62,0.8,5.79
28.90622615814209,-3.85,3.82,0.05,5.42
28.91421604156494,-4.17,2.66,0.24,4.95
28.92609405517578,-4.46,1.76,0.76,4.85
28.93583393096924,-4.27,1.2,0.53,4.46
28.965174198150635,-5.17,-3.39,0.2,6.18
28.96630311012268,-3.35,-2.4,-1.46,4.37
28.96715807914734,-2.54,-1.36,-0.87,3.0
28.98552107810974,-2.77,-3.91,1.08,4.91
28.986341953277588,-3.01,-4.01,-0.14,5.01
28.998889923095703,-2.2,-4.3,-0.48,4.85
29.006545066833496,-1.0,-3.81,-0.12,3.94
29.016195058822632,-0.92,-2.06,-0.87,2.41
29.0263409614563,-2.09,-0.22,-0.32,2.12
29.03628396987915,-3.33,1.95,1.27,4.06
29.068530082702637,-3.95,2.91,3.2,5.85
29.069586038589478,-3.72,2.57,3.12,5.49
29.070462226867676,-2.84,2.09,1.27,3.74
29.074854135513306,-1.85,1.86,0.18,2.62
29.085281133651733,-0.82,1.61,-0.53,1.88
29.096769094467163,-0.05,1.46,-1.37,2.0
29.10652804374695,-0.51,1.96,-2.21,2.99
29.116920948028564,-1.33,1.63,-1.28,2.46
29.126827239990234,-1.29,0.69,-0.42,1.52
29.13720703125,-0.44,-0.6,-1.19,1.4
29.169989109039307,0.36,-1.57,-1.73,2.36
29.171163082122803,1.28,-2.23,-1.78,3.12
29.171993255615234,0.97,-2.16,0.52,2.42
29.18244218826294,-0.98,-0.71,1.76,2.13
29.18573808670044,-1.45,-0.7,1.62,2.28
29.203341960906982,-2.0,-1.3,1.6,2.87
29.20718812942505,-2.41,-1.01,1.0,2.79
29.21598505973816,-2.08,-0.3,0.69,2.21
29.230618000030518,-1.61,-0.13,0.01,1.61
29.23710823059082,-0.59,-0.68,-3.01,3.14
29.263707160949707,0.08,-1.06,-4.43,4.55
29.26488208770752,-0.01,-2.07,-4.25,4.72
29.266127109527588,-0.19,-3.52,-2.65,4.41
29.283899068832397,0.12,-4.64,-1.08,4.76
29.286394119262695,0.19,-4.36,-0.1,4.36
29.300037145614624,0.08,-3.07,0.51,3.11
29.307878017425537,-0.12,-2.04,0.98,2.26
29.31769609451294,-0.31,-1.2,1.23,1.74
29.329011917114258,-0.49,-0.51,0.93,1.16
29.33802103996277,-0.77,-0.19,0.25,0.83
29.368566036224365,-0.72,-0.06,0.29,0.77
29.36977195739746,-0.78,-0.4,1.22,1.5
29.37070608139038,-1.19,-0.48,1.84,2.24
29.385159969329834,-1.36,-0.06,1.85,2.29
29.386771202087402,-0.85,0.82,1.83,2.17
29.402161121368408,0.06,2.01,1.76,2.67
29.40840196609497,0.67,2.8,1.5,3.24
29.418468952178955,0.64,2.83,1.61,3.31
29.42896604537964,0.17,2.21,-0.27,2.23
29.43911123275757,-0.54,1.47,-1.89,2.45
29.470986127853394,-1.6,1.36,2.31,3.12
29.472093105316162,-2.12,0.64,3.08,3.79
29.47295904159546,-1.52,-0.06,0.69,1.67
29.481213092803955,-0.81,-0.29,-1.32,1.57
29.48736310005188,-0.4,-0.27,-1.82,1.88
29.49974513053894,-0.04,0.18,-0.91,0.92
29.50907611846924,0.15,0.53,-0.43,0.69
29.518832206726074,-0.05,0.49,-0.58,0.76
29.530155181884766,-0.23,0.27,-0.75,0.82
29.539356231689453,-0.43,0.02,-0.83,0.93
29.56554412841797,-0.62,-0.12,-0.82,1.03
29.566627025604248,-0.81,-0.09,-0.67,1.05
29.567656993865967,-1.07,0.01,-0.54,1.19
29.578455924987793,-1.17,0.04,-0.61,1.32
29.588072061538696,-0.98,0.0,-0.89,1.32
29.600126266479492,-0.59,-0.02,-1.18,1.31
29.60829496383667,-0.38,-0.06,-1.5,1.54
29.620069980621338,-0.5,-0.19,-1.7,1.78
29.62970805168152,-0.71,-0.29,-1.8,1.95
29.639944076538086,-0.89,-0.22,-1.75,1.97
29.667076110839844,-1.14,-0.07,-1.56,1.93
29.66815209388733,-1.04,0.06,-1.02,1.45
29.668896198272705,-1.07,0.3,-0.78,1.35
29.68122911453247,-0.93,0.24,-0.94,1.34
29.688515186309814,-0.68,0.01,-1.2,1.37
29.701813220977783,-0.48,-0.23,-1.86,1.93
29.709891080856323,-0.43,-0.65,-4.13,4.2
29.720189094543457,-0.64,-0.45,-3.34,3.43
29.730025053024292,-1.04,0.18,-1.52,1.85
29.740289211273193,-1.22,0.18,-0.51,1.33
29.76896905899048,-1.2,-0.17,-0.16,1.22
29.76997208595276,-0.99,-0.36,-0.37,1.11
29.770780086517334,-0.81,-0.28,-0.45,0.96
29.78057622909546,-0.51,-0.09,-0.17,0.54
29.788981914520264,-0.63,-0.03,-0.44,0.76
29.800114154815674,-0.87,-0.42,-1.13,1.48
29.81122398376465,-1.15,-0.73,-1.68,2.16
29.820865154266357,-1.16,-0.51,-1.48,1.94
29.830810070037842,-1.36,-0.23,-0.89,1.64
29.841113090515137,-1.32,0.06,0.05,1.32
29.866628170013428,-1.06,0.08,0.78,1.31
29.867854118347168,-0.76,-0.08,1.26,1.47
29.869444131851196,-0.55,-0.3,1.34,1.47
29.882107257843018,-0.55,-0.51,1.07,1.3
29.889541149139404,-0.62,-0.5,0.78,1.11
29.90226697921753,-0.66,-0.32,0.53,0.9
29.91140604019165,-0.65,-0.13,0.47,0.81
29.921136140823364,-0.69,-0.06,0.67,0.96
29.931872129440308,-0.72,-0.08,1.04,1.26
29.94168996810913,-0.69,-0.13,1.36,1.53
29.97486710548401,-0.6,-0.09,1.65,1.75
29.976001262664795,-0.46,0.0,1.9,1.95
29.97692108154297,-0.29,0.1,1.95,1.97
29.982646942138672,-0.15,0.19,1.79,1.8
30.005479097366333,-0.09,0.24,1.67,1.68
30.00876808166504,-0.11,0.24,1.65,1.67
30.016735076904297,-0.2,0.23,1.73,1.75
30.022030115127563,-0.33,0.22,1.87,1.91
30.03601598739624,-0.49,0.23,2.08,2.14
30.0419602394104,-0.68,0.19,2.4,2.5
